"","ID","stim_ID","GW","GAL","NGW","NGL","jitter1","jitter2","RT","outcomefeed","response","GoResponse","Cue","req_action","correct","feedback","OutValence","salient","trial_number","block","TrialCount"
"1","CTLB0360",2,4,1,2,3,2032,764,0,1,"no_press",0,"NGW","noGo",1,"win","Win","win",1,"1",1
"2","CTLB0360",4,4,1,2,3,2336,593,1311,1,"press",1,"GW","Go",1,"win","Win","win",2,"1",1
"3","CTLB0360",4,4,1,2,3,1966,739,855,1,"press",1,"GW","Go",1,"win","Win","win",5,"1",2
"4","CTLB0360",1,4,1,2,3,1630,506,0,-1,"no_press",0,"GAL","Go",0,"lose","Avoid","lose",6,"1",1
"5","CTLB0360",4,4,1,2,3,2129,574,589,1,"press",1,"GW","Go",1,"win","Win","win",9,"1",4
"6","CTLB0360",4,4,1,2,3,1964,809,1108,1,"press",1,"GW","Go",1,"win","Win","win",11,"1",6
"7","CTLB0360",4,4,1,2,3,1845,611,560,1,"press",1,"GW","Go",1,"win","Win","win",12,"1",7
"8","CTLB0360",1,4,1,2,3,3412,780,0,-1,"no_press",0,"GAL","Go",0,"lose","Avoid","lose",13,"1",2
"9","CTLB0360",4,4,1,2,3,1206,817,673,1,"press",1,"GW","Go",1,"win","Win","win",14,"1",8
"10","CTLB0360",4,4,1,2,3,1596,703,655,1,"press",1,"GW","Go",1,"win","Win","win",15,"1",9
"11","CTLB0360",3,4,1,2,3,2528,580,0,-1,"no_press",0,"NGL","noGo",1,"lose","Avoid","lose",16,"1",3
"12","CTLB0360",4,4,1,2,3,1678,753,891,1,"press",1,"GW","Go",1,"win","Win","win",17,"1",10
"13","CTLB0360",3,4,1,2,3,2853,609,783,-1,"press",1,"NGL","noGo",0,"lose","Avoid","lose",18,"1",4
"14","CTLB0360",3,4,1,2,3,1959,762,0,-1,"no_press",0,"NGL","noGo",1,"lose","Avoid","lose",19,"1",5
"15","CTLB0360",4,4,1,2,3,1482,635,630,1,"press",1,"GW","Go",1,"win","Win","win",21,"1",11
"16","CTLB0360",2,4,1,2,3,2287,906,771,1,"press",1,"NGW","noGo",0,"win","Win","win",26,"1",5
"17","CTLB0360",4,4,1,2,3,1246,661,564,1,"press",1,"GW","Go",1,"win","Win","win",27,"1",12
"18","CTLB0360",4,4,1,2,3,1942,904,588,1,"press",1,"GW","Go",1,"win","Win","win",31,"1",14
"19","CTLB0360",2,4,1,2,3,2388,803,612,1,"press",1,"NGW","noGo",0,"win","Win","win",32,"1",7
"20","CTLB0360",4,4,1,2,3,2057,652,502,1,"press",1,"GW","Go",1,"win","Win","win",33,"1",15
"21","CTLB0360",1,4,1,2,3,1204,801,658,-1,"press",1,"GAL","Go",1,"lose","Avoid","lose",36,"1",8
"22","CTLB0360",1,4,1,2,3,1709,641,0,-1,"no_press",0,"GAL","Go",0,"lose","Avoid","lose",37,"1",9
"23","CTLB0360",4,4,1,2,3,1511,988,635,1,"press",1,"GW","Go",1,"win","Win","win",39,"1",16
"24","CTLB0360",1,4,1,2,3,2523,882,0,-1,"no_press",0,"GAL","Go",0,"lose","Avoid","lose",40,"1",10
"25","CTLB0360",1,4,1,2,3,1511,836,488,-1,"press",1,"GAL","Go",1,"lose","Avoid","lose",41,"1",11
"26","CTLB0360",4,4,1,2,3,1908,639,973,1,"press",1,"GW","Go",1,"win","Win","win",43,"1",17
"27","CTLB0360",1,4,1,2,3,2306,683,0,-1,"no_press",0,"GAL","Go",0,"lose","Avoid","lose",51,"1",15
"28","CTLB0360",2,4,1,2,3,1000,685,0,1,"no_press",0,"NGW","noGo",1,"win","Win","win",56,"1",13
"29","CTLB0360",4,4,1,2,3,3016,513,647,1,"press",1,"GW","Go",1,"win","Win","win",57,"1",18
"30","CTLB0360",3,4,1,2,3,3626,959,0,-1,"no_press",0,"NGL","noGo",1,"lose","Avoid","lose",62,"1",13
"31","CTLB0360",4,4,1,2,3,1289,639,576,1,"press",1,"GW","Go",1,"win","Win","win",64,"1",19
"32","CTLB0360",3,4,1,2,3,2245,967,1142,-1,"press",1,"NGL","noGo",0,"lose","Avoid","lose",67,"1",14
"33","CTLB0360",4,4,1,2,3,2785,823,627,1,"press",1,"GW","Go",1,"win","Win","win",70,"1",21
"34","CTLB0360",4,4,1,2,3,1634,800,552,1,"press",1,"GW","Go",1,"win","Win","win",71,"1",22
"35","CTLB0360",3,4,1,2,3,2140,918,402,-1,"press",1,"NGL","noGo",0,"lose","Avoid","lose",74,"1",17
"36","CTLB0360",1,4,1,2,3,2980,820,0,-1,"no_press",0,"GAL","Go",0,"lose","Avoid","lose",76,"1",18
"37","CTLB0360",2,4,1,2,3,1289,887,832,1,"press",1,"NGW","noGo",0,"win","Win","win",77,"1",20
"38","CTLB0360",3,4,1,2,3,2380,860,0,-1,"no_press",0,"NGL","noGo",1,"lose","Avoid","lose",80,"1",18
"39","CTLB0360",1,4,1,2,3,2609,893,1178,-1,"press",1,"GAL","Go",1,"lose","Avoid","lose",84,"1",19
"40","CTLB0360",1,4,1,2,3,1537,969,0,-1,"no_press",0,"GAL","Go",0,"lose","Avoid","lose",85,"1",20
"41","CTLB0360",3,4,1,2,3,2664,851,1035,-1,"press",1,"NGL","noGo",0,"lose","Avoid","lose",90,"1",23
"42","CTLB0360",4,4,1,2,3,1597,832,331,1,"press",1,"GW","Go",1,"win","Win","win",94,"1",24
"43","CTLB0360",3,4,1,2,3,2004,957,0,-1,"no_press",0,"NGL","noGo",1,"lose","Avoid","lose",95,"1",24
"44","CTLB0360",4,4,1,2,3,1742,707,552,1,"press",1,"GW","Go",1,"win","Win","win",98,"1",25
"45","CTLB0360",1,4,1,2,3,1491,514,0,-1,"no_press",0,"GAL","Go",0,"lose","Avoid","lose",99,"1",24
"46","CTLB0360",1,4,1,2,3,2745,911,1161,-1,"press",1,"GAL","Go",1,"lose","Avoid","lose",100,"1",25
"47","CTLB0360",6,6,7,8,5,1494,930,1213,1,"press",1,"GW","Go",1,"win","Win","win",101,"2",1
"48","CTLB0360",7,6,7,8,5,2254,611,0,-1,"no_press",0,"GAL","Go",0,"lose","Avoid","lose",103,"2",1
"49","CTLB0360",6,6,7,8,5,2195,561,924,1,"press",1,"GW","Go",1,"win","Win","win",104,"2",2
"50","CTLB0360",6,6,7,8,5,1795,725,595,1,"press",1,"GW","Go",1,"win","Win","win",107,"2",4
"51","CTLB0360",5,6,7,8,5,1847,593,1155,-1,"press",1,"NGL","noGo",0,"lose","Avoid","lose",108,"2",3
"52","CTLB0360",7,6,7,8,5,1785,872,672,-1,"press",1,"GAL","Go",1,"lose","Avoid","lose",109,"2",2
"53","CTLB0360",6,6,7,8,5,1000,671,574,1,"press",1,"GW","Go",1,"win","Win","win",111,"2",5
"54","CTLB0360",7,6,7,8,5,1570,922,815,-1,"press",1,"GAL","Go",1,"lose","Avoid","lose",114,"2",4
"55","CTLB0360",7,6,7,8,5,1237,938,0,-1,"no_press",0,"GAL","Go",0,"lose","Avoid","lose",115,"2",5
"56","CTLB0360",5,6,7,8,5,1812,817,657,-1,"press",1,"NGL","noGo",0,"lose","Avoid","lose",117,"2",4
"57","CTLB0360",5,6,7,8,5,2349,875,0,-1,"no_press",0,"NGL","noGo",1,"lose","Avoid","lose",118,"2",5
"58","CTLB0360",5,6,7,8,5,1505,698,803,-1,"press",1,"NGL","noGo",0,"lose","Avoid","lose",120,"2",6
"59","CTLB0360",7,6,7,8,5,2038,980,459,-1,"press",1,"GAL","Go",1,"lose","Avoid","lose",122,"2",7
"60","CTLB0360",6,6,7,8,5,2315,779,1545,1,"press",1,"GW","Go",1,"win","Win","win",124,"2",7
"61","CTLB0360",5,6,7,8,5,3029,532,724,-1,"press",1,"NGL","noGo",0,"lose","Avoid","lose",125,"2",7
"62","CTLB0360",7,6,7,8,5,1967,622,0,-1,"no_press",0,"GAL","Go",0,"lose","Avoid","lose",126,"2",9
"63","CTLB0360",5,6,7,8,5,1329,650,770,-1,"press",1,"NGL","noGo",0,"lose","Avoid","lose",127,"2",8
"64","CTLB0360",6,6,7,8,5,1326,821,641,1,"press",1,"GW","Go",1,"win","Win","win",129,"2",9
"65","CTLB0360",6,6,7,8,5,2001,653,651,1,"press",1,"GW","Go",1,"win","Win","win",132,"2",11
"66","CTLB0360",5,6,7,8,5,1402,600,960,-1,"press",1,"NGL","noGo",0,"lose","Avoid","lose",135,"2",9
"67","CTLB0360",6,6,7,8,5,2019,507,640,1,"press",1,"GW","Go",1,"win","Win","win",136,"2",12
"68","CTLB0360",8,6,7,8,5,2257,971,0,1,"no_press",0,"NGW","noGo",1,"win","Win","win",137,"2",6
"69","CTLB0360",7,6,7,8,5,2080,560,0,-1,"no_press",0,"GAL","Go",0,"lose","Avoid","lose",138,"2",11
"70","CTLB0360",6,6,7,8,5,2942,641,589,1,"press",1,"GW","Go",1,"win","Win","win",140,"2",13
"71","CTLB0360",6,6,7,8,5,2184,626,560,1,"press",1,"GW","Go",1,"win","Win","win",142,"2",14
"72","CTLB0360",8,6,7,8,5,2228,631,0,1,"no_press",0,"NGW","noGo",1,"win","Win","win",143,"2",7
"73","CTLB0360",6,6,7,8,5,2887,729,535,1,"press",1,"GW","Go",1,"win","Win","win",144,"2",15
"74","CTLB0360",8,6,7,8,5,2218,574,0,1,"no_press",0,"NGW","noGo",1,"win","Win","win",151,"2",10
"75","CTLB0360",6,6,7,8,5,2828,791,561,1,"press",1,"GW","Go",1,"win","Win","win",152,"2",16
"76","CTLB0360",8,6,7,8,5,2318,762,0,1,"no_press",0,"NGW","noGo",1,"win","Win","win",155,"2",12
"77","CTLB0360",8,6,7,8,5,1802,846,0,1,"no_press",0,"NGW","noGo",1,"win","Win","win",156,"2",13
"78","CTLB0360",8,6,7,8,5,2008,997,0,1,"no_press",0,"NGW","noGo",1,"win","Win","win",157,"2",14
"79","CTLB0360",5,6,7,8,5,1598,742,0,-1,"no_press",0,"NGL","noGo",1,"lose","Avoid","lose",158,"2",13
"80","CTLB0360",6,6,7,8,5,2547,847,581,1,"press",1,"GW","Go",1,"win","Win","win",159,"2",17
"81","CTLB0360",8,6,7,8,5,2198,521,0,1,"no_press",0,"NGW","noGo",1,"win","Win","win",160,"2",15
"82","CTLB0360",8,6,7,8,5,2072,600,0,1,"no_press",0,"NGW","noGo",1,"win","Win","win",162,"2",17
"83","CTLB0360",6,6,7,8,5,1275,741,668,1,"press",1,"GW","Go",1,"win","Win","win",164,"2",19
"84","CTLB0360",8,6,7,8,5,2029,938,0,1,"no_press",0,"NGW","noGo",1,"win","Win","win",165,"2",18
"85","CTLB0360",8,6,7,8,5,2087,695,0,1,"no_press",0,"NGW","noGo",1,"win","Win","win",166,"2",19
"86","CTLB0360",5,6,7,8,5,1000,881,1346,-1,"press",1,"NGL","noGo",0,"lose","Avoid","lose",167,"2",14
"87","CTLB0360",8,6,7,8,5,2166,797,0,1,"no_press",0,"NGW","noGo",1,"win","Win","win",168,"2",20
"88","CTLB0360",5,6,7,8,5,1588,691,0,-1,"no_press",0,"NGL","noGo",1,"lose","Avoid","lose",169,"2",15
"89","CTLB0360",5,6,7,8,5,1592,560,1489,-1,"press",1,"NGL","noGo",0,"lose","Avoid","lose",171,"2",16
"90","CTLB0360",6,6,7,8,5,1759,670,395,1,"press",1,"GW","Go",1,"win","Win","win",173,"2",20
"91","CTLB0360",8,6,7,8,5,2964,644,0,1,"no_press",0,"NGW","noGo",1,"win","Win","win",174,"2",21
"92","CTLB0360",8,6,7,8,5,2041,997,0,1,"no_press",0,"NGW","noGo",1,"win","Win","win",176,"2",22
"93","CTLB0360",8,6,7,8,5,2719,971,0,1,"no_press",0,"NGW","noGo",1,"win","Win","win",178,"2",23
"94","CTLB0360",6,6,7,8,5,1354,547,603,1,"press",1,"GW","Go",1,"win","Win","win",180,"2",21
"95","CTLB0360",7,6,7,8,5,2085,524,779,-1,"press",1,"GAL","Go",1,"lose","Avoid","lose",181,"2",19
"96","CTLB0360",6,6,7,8,5,1841,727,794,1,"press",1,"GW","Go",1,"win","Win","win",183,"2",22
"97","CTLB0360",5,6,7,8,5,3515,978,1033,-1,"press",1,"NGL","noGo",0,"lose","Avoid","lose",184,"2",19
"98","CTLB0360",5,6,7,8,5,1588,888,0,-1,"no_press",0,"NGL","noGo",1,"lose","Avoid","lose",194,"2",23
"99","CTLB0360",6,6,7,8,5,1931,797,543,1,"press",1,"GW","Go",1,"win","Win","win",197,"2",25
"100","CTLB0360",8,6,7,8,5,2277,609,0,1,"no_press",0,"NGW","noGo",1,"win","Win","win",199,"2",24
"101","CTLB0360",8,6,7,8,5,2299,960,0,1,"no_press",0,"NGW","noGo",1,"win","Win","win",200,"2",25
"102","CTLB0360",12,12,9,10,11,2122,671,1350,1,"press",1,"GW","Go",1,"win","Win","win",202,"3",2
"103","CTLB0360",11,12,9,10,11,1196,789,784,-1,"press",1,"NGL","noGo",0,"lose","Avoid","lose",204,"3",2
"104","CTLB0360",11,12,9,10,11,2335,531,0,-1,"no_press",0,"NGL","noGo",1,"lose","Avoid","lose",205,"3",3
"105","CTLB0360",12,12,9,10,11,2836,980,754,1,"press",1,"GW","Go",1,"win","Win","win",207,"3",3
"106","CTLB0360",11,12,9,10,11,2369,758,0,-1,"no_press",0,"NGL","noGo",1,"lose","Avoid","lose",208,"3",4
"107","CTLB0360",11,12,9,10,11,2040,734,479,-1,"press",1,"NGL","noGo",0,"lose","Avoid","lose",216,"3",6
"108","CTLB0360",11,12,9,10,11,2247,825,511,-1,"press",1,"NGL","noGo",0,"lose","Avoid","lose",218,"3",7
"109","CTLB0360",12,12,9,10,11,1825,829,628,1,"press",1,"GW","Go",1,"win","Win","win",222,"3",5
"110","CTLB0360",11,12,9,10,11,1798,529,511,-1,"press",1,"NGL","noGo",0,"lose","Avoid","lose",229,"3",11
"111","CTLB0360",10,12,9,10,11,2097,879,0,1,"no_press",0,"NGW","noGo",1,"win","Win","win",230,"3",6
"112","CTLB0360",12,12,9,10,11,2818,830,876,1,"press",1,"GW","Go",1,"win","Win","win",231,"3",6
"113","CTLB0360",9,12,9,10,11,2855,973,0,-1,"no_press",0,"GAL","Go",0,"lose","Avoid","lose",235,"3",10
"114","CTLB0360",10,12,9,10,11,2524,835,1152,1,"press",1,"NGW","noGo",0,"win","Win","win",238,"3",9
"115","CTLB0360",12,12,9,10,11,1954,505,690,1,"press",1,"GW","Go",1,"win","Win","win",242,"3",7
"116","CTLB0360",12,12,9,10,11,2019,605,1015,1,"press",1,"GW","Go",1,"win","Win","win",245,"3",8
"117","CTLB0360",11,12,9,10,11,1445,605,818,-1,"press",1,"NGL","noGo",0,"lose","Avoid","lose",246,"3",14
"118","CTLB0360",12,12,9,10,11,1829,773,879,1,"press",1,"GW","Go",1,"win","Win","win",247,"3",9
"119","CTLB0360",12,12,9,10,11,2977,605,686,1,"press",1,"GW","Go",1,"win","Win","win",251,"3",11
"120","CTLB0360",12,12,9,10,11,2455,828,829,1,"press",1,"GW","Go",1,"win","Win","win",253,"3",13
"121","CTLB0360",9,12,9,10,11,1547,529,994,-1,"press",1,"GAL","Go",1,"lose","Avoid","lose",254,"3",15
"122","CTLB0360",12,12,9,10,11,2184,667,858,1,"press",1,"GW","Go",1,"win","Win","win",256,"3",14
"123","CTLB0360",11,12,9,10,11,3385,813,552,-1,"press",1,"NGL","noGo",0,"lose","Avoid","lose",258,"3",15
"124","CTLB0360",9,12,9,10,11,1702,773,638,-1,"press",1,"GAL","Go",1,"lose","Avoid","lose",259,"3",17
"125","CTLB0360",12,12,9,10,11,2490,752,413,1,"press",1,"GW","Go",1,"win","Win","win",260,"3",15
"126","CTLB0360",9,12,9,10,11,1693,659,455,-1,"press",1,"GAL","Go",1,"lose","Avoid","lose",261,"3",18
"127","CTLB0360",11,12,9,10,11,3020,514,455,-1,"press",1,"NGL","noGo",0,"lose","Avoid","lose",262,"3",16
"128","CTLB0360",9,12,9,10,11,1578,963,0,-1,"no_press",0,"GAL","Go",0,"lose","Avoid","lose",265,"3",19
"129","CTLB0360",12,12,9,10,11,2080,830,977,1,"press",1,"GW","Go",1,"win","Win","win",269,"3",17
"130","CTLB0360",10,12,9,10,11,2344,882,782,1,"press",1,"NGW","noGo",0,"win","Win","win",273,"3",17
"131","CTLB0360",12,12,9,10,11,1963,817,554,1,"press",1,"GW","Go",1,"win","Win","win",274,"3",18
"132","CTLB0360",12,12,9,10,11,2503,518,568,1,"press",1,"GW","Go",1,"win","Win","win",275,"3",19
"133","CTLB0360",12,12,9,10,11,1267,925,885,1,"press",1,"GW","Go",1,"win","Win","win",281,"3",20
"134","CTLB0360",9,12,9,10,11,1000,712,1156,-1,"press",1,"GAL","Go",1,"lose","Avoid","lose",282,"3",24
"135","CTLB0360",12,12,9,10,11,2579,977,1045,1,"press",1,"GW","Go",1,"win","Win","win",284,"3",21
"136","CTLB0360",11,12,9,10,11,2131,754,668,-1,"press",1,"NGL","noGo",0,"lose","Avoid","lose",285,"3",22
"137","CTLB0360",12,12,9,10,11,1249,882,847,1,"press",1,"GW","Go",1,"win","Win","win",286,"3",22
"138","CTLB0360",12,12,9,10,11,2451,762,582,1,"press",1,"GW","Go",1,"win","Win","win",287,"3",23
"139","CTLB0360",10,12,9,10,11,1000,595,628,1,"press",1,"NGW","noGo",0,"win","Win","win",289,"3",20
"140","CTLB0360",10,12,9,10,11,1779,762,1027,1,"press",1,"NGW","noGo",0,"win","Win","win",292,"3",21
"141","CTLB0360",9,12,9,10,11,1615,961,0,-1,"no_press",0,"GAL","Go",0,"lose","Avoid","lose",293,"3",25
"142","CTLB0360",12,12,9,10,11,1826,877,553,1,"press",1,"GW","Go",1,"win","Win","win",295,"3",24
"143","CTLB0360",11,12,9,10,11,2448,827,953,-1,"press",1,"NGL","noGo",0,"lose","Avoid","lose",296,"3",25
"144","CTLB0360",10,12,9,10,11,2822,629,521,1,"press",1,"NGW","noGo",0,"win","Win","win",297,"3",23
"145","CTLB0360",16,16,13,14,15,1824,999,978,1,"press",1,"GW","Go",1,"win","Win","win",301,"4",1
"146","CTLB0360",16,16,13,14,15,1761,557,583,1,"press",1,"GW","Go",1,"win","Win","win",302,"4",2
"147","CTLB0360",13,16,13,14,15,1861,690,0,-1,"no_press",0,"GAL","Go",0,"lose","Avoid","lose",303,"4",1
"148","CTLB0360",13,16,13,14,15,1189,549,0,-1,"no_press",0,"GAL","Go",0,"lose","Avoid","lose",304,"4",2
"149","CTLB0360",15,16,13,14,15,1191,676,1328,-1,"press",1,"NGL","noGo",0,"lose","Avoid","lose",306,"4",1
"150","CTLB0360",14,16,13,14,15,2817,727,1278,1,"press",1,"NGW","noGo",0,"win","Win","win",308,"4",2
"151","CTLB0360",13,16,13,14,15,1544,925,0,-1,"no_press",0,"GAL","Go",0,"lose","Avoid","lose",309,"4",3
"152","CTLB0360",16,16,13,14,15,1509,504,906,1,"press",1,"GW","Go",1,"win","Win","win",310,"4",4
"153","CTLB0360",16,16,13,14,15,2241,882,888,1,"press",1,"GW","Go",1,"win","Win","win",311,"4",5
"154","CTLB0360",13,16,13,14,15,2206,875,0,-1,"no_press",0,"GAL","Go",0,"lose","Avoid","lose",312,"4",4
"155","CTLB0360",16,16,13,14,15,1922,894,597,1,"press",1,"GW","Go",1,"win","Win","win",316,"4",7
"156","CTLB0360",15,16,13,14,15,1591,739,772,-1,"press",1,"NGL","noGo",0,"lose","Avoid","lose",319,"4",3
"157","CTLB0360",15,16,13,14,15,2272,611,0,-1,"no_press",0,"NGL","noGo",1,"lose","Avoid","lose",322,"4",5
"158","CTLB0360",14,16,13,14,15,2645,735,0,1,"no_press",0,"NGW","noGo",1,"win","Win","win",324,"4",7
"159","CTLB0360",14,16,13,14,15,2381,877,0,1,"no_press",0,"NGW","noGo",1,"win","Win","win",325,"4",8
"160","CTLB0360",16,16,13,14,15,2285,839,842,1,"press",1,"GW","Go",1,"win","Win","win",326,"4",9
"161","CTLB0360",15,16,13,14,15,1346,600,1487,-1,"press",1,"NGL","noGo",0,"lose","Avoid","lose",328,"4",7
"162","CTLB0360",13,16,13,14,15,2086,777,0,-1,"no_press",0,"GAL","Go",0,"lose","Avoid","lose",329,"4",5
"163","CTLB0360",16,16,13,14,15,1229,956,698,1,"press",1,"GW","Go",1,"win","Win","win",330,"4",10
"164","CTLB0360",13,16,13,14,15,2125,878,0,-1,"no_press",0,"GAL","Go",0,"lose","Avoid","lose",331,"4",6
"165","CTLB0360",15,16,13,14,15,2226,591,0,-1,"no_press",0,"NGL","noGo",1,"lose","Avoid","lose",332,"4",8
"166","CTLB0360",14,16,13,14,15,1885,713,0,1,"no_press",0,"NGW","noGo",1,"win","Win","win",334,"4",10
"167","CTLB0360",14,16,13,14,15,2266,972,0,1,"no_press",0,"NGW","noGo",1,"win","Win","win",336,"4",11
"168","CTLB0360",15,16,13,14,15,2026,1000,1011,-1,"press",1,"NGL","noGo",0,"lose","Avoid","lose",338,"4",10
"169","CTLB0360",13,16,13,14,15,1965,852,825,-1,"press",1,"GAL","Go",1,"lose","Avoid","lose",342,"4",9
"170","CTLB0360",15,16,13,14,15,2464,680,0,-1,"no_press",0,"NGL","noGo",1,"lose","Avoid","lose",344,"4",12
"171","CTLB0360",16,16,13,14,15,1951,802,544,1,"press",1,"GW","Go",1,"win","Win","win",345,"4",11
"172","CTLB0360",15,16,13,14,15,2066,764,1177,-1,"press",1,"NGL","noGo",0,"lose","Avoid","lose",346,"4",13
"173","CTLB0360",16,16,13,14,15,1000,715,706,1,"press",1,"GW","Go",1,"win","Win","win",347,"4",12
"174","CTLB0360",15,16,13,14,15,1842,657,1134,-1,"press",1,"NGL","noGo",0,"lose","Avoid","lose",355,"4",17
"175","CTLB0360",13,16,13,14,15,1166,541,0,-1,"no_press",0,"GAL","Go",0,"lose","Avoid","lose",356,"4",14
"176","CTLB0360",16,16,13,14,15,2571,980,656,1,"press",1,"GW","Go",1,"win","Win","win",362,"4",14
"177","CTLB0360",14,16,13,14,15,2700,915,0,1,"no_press",0,"NGW","noGo",1,"win","Win","win",364,"4",18
"178","CTLB0360",14,16,13,14,15,2228,867,947,1,"press",1,"NGW","noGo",0,"win","Win","win",365,"4",19
"179","CTLB0360",16,16,13,14,15,1608,646,884,1,"press",1,"GW","Go",1,"win","Win","win",368,"4",15
"180","CTLB0360",13,16,13,14,15,1444,972,651,-1,"press",1,"GAL","Go",1,"lose","Avoid","lose",369,"4",17
"181","CTLB0360",16,16,13,14,15,1403,700,825,1,"press",1,"GW","Go",1,"win","Win","win",370,"4",16
"182","CTLB0360",13,16,13,14,15,2274,914,1149,-1,"press",1,"GAL","Go",1,"lose","Avoid","lose",372,"4",19
"183","CTLB0360",16,16,13,14,15,1842,953,1152,1,"press",1,"GW","Go",1,"win","Win","win",373,"4",17
"184","CTLB0360",16,16,13,14,15,1729,775,645,1,"press",1,"GW","Go",1,"win","Win","win",376,"4",20
"185","CTLB0360",13,16,13,14,15,1635,518,748,-1,"press",1,"GAL","Go",1,"lose","Avoid","lose",378,"4",21
"186","CTLB0360",16,16,13,14,15,1753,665,721,1,"press",1,"GW","Go",1,"win","Win","win",380,"4",21
"187","CTLB0360",16,16,13,14,15,2176,721,902,1,"press",1,"GW","Go",1,"win","Win","win",382,"4",22
"188","CTLB0360",15,16,13,14,15,1504,586,636,-1,"press",1,"NGL","noGo",0,"lose","Avoid","lose",383,"4",19
"189","CTLB0360",13,16,13,14,15,1921,900,0,-1,"no_press",0,"GAL","Go",0,"lose","Avoid","lose",387,"4",23
"190","CTLB0360",15,16,13,14,15,1965,565,353,-1,"press",1,"NGL","noGo",0,"lose","Avoid","lose",389,"4",21
"191","CTLB0360",14,16,13,14,15,2650,561,0,1,"no_press",0,"NGW","noGo",1,"win","Win","win",390,"4",24
"192","CTLB0360",16,16,13,14,15,1729,890,811,1,"press",1,"GW","Go",1,"win","Win","win",391,"4",23
"193","CTLB0360",14,16,13,14,15,2129,725,977,1,"press",1,"NGW","noGo",0,"win","Win","win",392,"4",25
"194","CTLB0360",15,16,13,14,15,1509,634,409,-1,"press",1,"NGL","noGo",0,"lose","Avoid","lose",394,"4",22
"195","CTLB0360",15,16,13,14,15,2695,568,592,-1,"press",1,"NGL","noGo",0,"lose","Avoid","lose",395,"4",23
"196","CTLB0360",13,16,13,14,15,1715,865,0,-1,"no_press",0,"GAL","Go",0,"lose","Avoid","lose",396,"4",24
"197","CTLB0360",15,16,13,14,15,1430,844,1287,-1,"press",1,"NGL","noGo",0,"lose","Avoid","lose",398,"4",24
"198","CTLB0360",15,16,13,14,15,1847,796,1175,-1,"press",1,"NGL","noGo",0,"lose","Avoid","lose",399,"4",25
"199","DBGE0324",1,2,3,4,1,2650,773,587,-1,"press",1,"NGL","noGo",0,"lose","Avoid","lose",1,"1",1
"200","DBGE0324",2,2,3,4,1,1588,864,884,1,"press",1,"GW","Go",1,"win","Win","win",3,"1",1
"201","DBGE0324",4,2,3,4,1,2794,548,0,1,"no_press",0,"NGW","noGo",1,"win","Win","win",4,"1",1
"202","DBGE0324",3,2,3,4,1,3515,879,676,-1,"press",1,"GAL","Go",1,"lose","Avoid","lose",5,"1",2
"203","DBGE0324",4,2,3,4,1,3445,951,0,1,"no_press",0,"NGW","noGo",1,"win","Win","win",6,"1",2
"204","DBGE0324",4,2,3,4,1,1932,923,0,1,"no_press",0,"NGW","noGo",1,"win","Win","win",9,"1",3
"205","DBGE0324",4,2,3,4,1,1509,955,0,1,"no_press",0,"NGW","noGo",1,"win","Win","win",10,"1",4
"206","DBGE0324",4,2,3,4,1,1266,650,0,1,"no_press",0,"NGW","noGo",1,"win","Win","win",17,"1",7
"207","DBGE0324",2,2,3,4,1,1879,762,934,1,"press",1,"GW","Go",1,"win","Win","win",18,"1",3
"208","DBGE0324",3,2,3,4,1,1467,619,0,-1,"no_press",0,"GAL","Go",0,"lose","Avoid","lose",19,"1",4
"209","DBGE0324",2,2,3,4,1,2785,846,704,1,"press",1,"GW","Go",1,"win","Win","win",22,"1",5
"210","DBGE0324",3,2,3,4,1,2169,834,569,-1,"press",1,"GAL","Go",1,"lose","Avoid","lose",23,"1",5
"211","DBGE0324",4,2,3,4,1,1503,699,0,1,"no_press",0,"NGW","noGo",1,"win","Win","win",26,"1",9
"212","DBGE0324",1,2,3,4,1,1189,939,0,-1,"no_press",0,"NGL","noGo",1,"lose","Avoid","lose",27,"1",8
"213","DBGE0324",2,2,3,4,1,1494,736,1486,1,"press",1,"GW","Go",1,"win","Win","win",28,"1",6
"214","DBGE0324",3,2,3,4,1,2066,681,813,-1,"press",1,"GAL","Go",1,"lose","Avoid","lose",29,"1",6
"215","DBGE0324",3,2,3,4,1,1504,746,0,-1,"no_press",0,"GAL","Go",0,"lose","Avoid","lose",32,"1",7
"216","DBGE0324",2,2,3,4,1,2980,634,480,1,"press",1,"GW","Go",1,"win","Win","win",38,"1",8
"217","DBGE0324",2,2,3,4,1,2034,766,480,1,"press",1,"GW","Go",1,"win","Win","win",40,"1",9
"218","DBGE0324",2,2,3,4,1,2198,695,550,1,"press",1,"GW","Go",1,"win","Win","win",43,"1",10
"219","DBGE0324",4,2,3,4,1,2402,679,0,1,"no_press",0,"NGW","noGo",1,"win","Win","win",46,"1",10
"220","DBGE0324",1,2,3,4,1,1608,662,0,-1,"no_press",0,"NGL","noGo",1,"lose","Avoid","lose",47,"1",14
"221","DBGE0324",4,2,3,4,1,2044,975,0,1,"no_press",0,"NGW","noGo",1,"win","Win","win",48,"1",11
"222","DBGE0324",2,2,3,4,1,1182,719,1084,1,"press",1,"GW","Go",1,"win","Win","win",50,"1",11
"223","DBGE0324",1,2,3,4,1,1204,813,0,-1,"no_press",0,"NGL","noGo",1,"lose","Avoid","lose",52,"1",15
"224","DBGE0324",4,2,3,4,1,2029,609,0,1,"no_press",0,"NGW","noGo",1,"win","Win","win",54,"1",12
"225","DBGE0324",4,2,3,4,1,2700,865,0,1,"no_press",0,"NGW","noGo",1,"win","Win","win",58,"1",14
"226","DBGE0324",2,2,3,4,1,1743,965,666,1,"press",1,"GW","Go",1,"win","Win","win",59,"1",12
"227","DBGE0324",2,2,3,4,1,2467,641,607,1,"press",1,"GW","Go",1,"win","Win","win",60,"1",13
"228","DBGE0324",4,2,3,4,1,2253,947,0,1,"no_press",0,"NGW","noGo",1,"win","Win","win",63,"1",15
"229","DBGE0324",2,2,3,4,1,2853,712,543,1,"press",1,"GW","Go",1,"win","Win","win",66,"1",14
"230","DBGE0324",1,2,3,4,1,1951,718,0,-1,"no_press",0,"NGL","noGo",1,"lose","Avoid","lose",67,"1",19
"231","DBGE0324",4,2,3,4,1,3560,926,0,1,"no_press",0,"NGW","noGo",1,"win","Win","win",68,"1",16
"232","DBGE0324",2,2,3,4,1,1403,663,573,1,"press",1,"GW","Go",1,"win","Win","win",70,"1",15
"233","DBGE0324",4,2,3,4,1,2336,508,0,1,"no_press",0,"NGW","noGo",1,"win","Win","win",71,"1",17
"234","DBGE0324",2,2,3,4,1,2234,626,702,1,"press",1,"GW","Go",1,"win","Win","win",73,"1",16
"235","DBGE0324",4,2,3,4,1,2241,992,0,1,"no_press",0,"NGW","noGo",1,"win","Win","win",74,"1",18
"236","DBGE0324",3,2,3,4,1,1943,939,564,-1,"press",1,"GAL","Go",1,"lose","Avoid","lose",75,"1",21
"237","DBGE0324",4,2,3,4,1,2873,564,0,1,"no_press",0,"NGW","noGo",1,"win","Win","win",77,"1",19
"238","DBGE0324",4,2,3,4,1,2455,944,0,1,"no_press",0,"NGW","noGo",1,"win","Win","win",78,"1",20
"239","DBGE0324",2,2,3,4,1,1000,829,601,1,"press",1,"GW","Go",1,"win","Win","win",80,"1",17
"240","DBGE0324",2,2,3,4,1,1932,791,612,1,"press",1,"GW","Go",1,"win","Win","win",81,"1",18
"241","DBGE0324",4,2,3,4,1,3016,624,0,1,"no_press",0,"NGW","noGo",1,"win","Win","win",84,"1",21
"242","DBGE0324",2,2,3,4,1,1000,682,806,1,"press",1,"GW","Go",1,"win","Win","win",85,"1",20
"243","DBGE0324",4,2,3,4,1,1693,754,0,1,"no_press",0,"NGW","noGo",1,"win","Win","win",86,"1",22
"244","DBGE0324",3,2,3,4,1,2086,654,745,-1,"press",1,"GAL","Go",1,"lose","Avoid","lose",89,"1",24
"245","DBGE0324",2,2,3,4,1,2306,756,592,1,"press",1,"GW","Go",1,"win","Win","win",90,"1",21
"246","DBGE0324",2,2,3,4,1,2513,830,605,1,"press",1,"GW","Go",1,"win","Win","win",91,"1",22
"247","DBGE0324",4,2,3,4,1,2184,854,0,1,"no_press",0,"NGW","noGo",1,"win","Win","win",92,"1",23
"248","DBGE0324",2,2,3,4,1,2367,585,560,1,"press",1,"GW","Go",1,"win","Win","win",95,"1",23
"249","DBGE0324",2,2,3,4,1,2344,972,480,1,"press",1,"GW","Go",1,"win","Win","win",97,"1",24
"250","DBGE0324",4,2,3,4,1,2080,922,0,1,"no_press",0,"NGW","noGo",1,"win","Win","win",99,"1",25
"251","DBGE0324",1,2,3,4,1,2041,768,0,-1,"no_press",0,"NGL","noGo",1,"lose","Avoid","lose",100,"1",25
"252","DBGE0324",7,6,5,8,7,1678,665,743,-1,"press",1,"NGL","noGo",0,"lose","Avoid","lose",104,"2",2
"253","DBGE0324",6,6,5,8,7,1964,660,957,1,"press",1,"GW","Go",1,"win","Win","win",105,"2",1
"254","DBGE0324",5,6,5,8,7,1536,624,778,-1,"press",1,"GAL","Go",1,"lose","Avoid","lose",106,"2",2
"255","DBGE0324",8,6,5,8,7,1578,968,0,1,"no_press",0,"NGW","noGo",1,"win","Win","win",107,"2",2
"256","DBGE0324",5,6,5,8,7,1771,514,0,-1,"no_press",0,"GAL","Go",0,"lose","Avoid","lose",108,"2",3
"257","DBGE0324",6,6,5,8,7,2588,957,657,1,"press",1,"GW","Go",1,"win","Win","win",111,"2",2
"258","DBGE0324",6,6,5,8,7,1908,645,474,1,"press",1,"GW","Go",1,"win","Win","win",113,"2",3
"259","DBGE0324",5,6,5,8,7,2184,746,0,-1,"no_press",0,"GAL","Go",0,"lose","Avoid","lose",114,"2",5
"260","DBGE0324",6,6,5,8,7,2087,660,735,1,"press",1,"GW","Go",1,"win","Win","win",116,"2",4
"261","DBGE0324",8,6,5,8,7,1936,536,0,1,"no_press",0,"NGW","noGo",1,"win","Win","win",118,"2",4
"262","DBGE0324",5,6,5,8,7,3876,514,0,-1,"no_press",0,"GAL","Go",0,"lose","Avoid","lose",119,"2",6
"263","DBGE0324",5,6,5,8,7,1288,561,0,-1,"no_press",0,"GAL","Go",0,"lose","Avoid","lose",122,"2",7
"264","DBGE0324",8,6,5,8,7,1938,779,0,1,"no_press",0,"NGW","noGo",1,"win","Win","win",123,"2",5
"265","DBGE0324",5,6,5,8,7,2000,859,0,-1,"no_press",0,"GAL","Go",0,"lose","Avoid","lose",124,"2",8
"266","DBGE0324",8,6,5,8,7,1779,931,0,1,"no_press",0,"NGW","noGo",1,"win","Win","win",127,"2",7
"267","DBGE0324",8,6,5,8,7,1546,763,0,1,"no_press",0,"NGW","noGo",1,"win","Win","win",130,"2",8
"268","DBGE0324",8,6,5,8,7,2274,859,0,1,"no_press",0,"NGW","noGo",1,"win","Win","win",131,"2",9
"269","DBGE0324",8,6,5,8,7,2262,909,0,1,"no_press",0,"NGW","noGo",1,"win","Win","win",132,"2",10
"270","DBGE0324",8,6,5,8,7,1759,613,0,1,"no_press",0,"NGW","noGo",1,"win","Win","win",134,"2",11
"271","DBGE0324",8,6,5,8,7,2645,715,0,1,"no_press",0,"NGW","noGo",1,"win","Win","win",135,"2",12
"272","DBGE0324",6,6,5,8,7,1479,984,736,1,"press",1,"GW","Go",1,"win","Win","win",139,"2",6
"273","DBGE0324",7,6,5,8,7,1959,673,0,-1,"no_press",0,"NGL","noGo",1,"lose","Avoid","lose",140,"2",8
"274","DBGE0324",8,6,5,8,7,1432,808,0,1,"no_press",0,"NGW","noGo",1,"win","Win","win",141,"2",13
"275","DBGE0324",5,6,5,8,7,2609,686,642,-1,"press",1,"GAL","Go",1,"lose","Avoid","lose",143,"2",15
"276","DBGE0324",6,6,5,8,7,2930,831,1011,1,"press",1,"GW","Go",1,"win","Win","win",144,"2",7
"277","DBGE0324",8,6,5,8,7,1206,835,0,1,"no_press",0,"NGW","noGo",1,"win","Win","win",147,"2",14
"278","DBGE0324",6,6,5,8,7,1249,729,782,1,"press",1,"GW","Go",1,"win","Win","win",150,"2",9
"279","DBGE0324",6,6,5,8,7,1505,795,686,1,"press",1,"GW","Go",1,"win","Win","win",151,"2",10
"280","DBGE0324",6,6,5,8,7,2695,512,590,1,"press",1,"GW","Go",1,"win","Win","win",152,"2",11
"281","DBGE0324",6,6,5,8,7,1842,772,877,1,"press",1,"GW","Go",1,"win","Win","win",154,"2",12
"282","DBGE0324",6,6,5,8,7,1630,993,712,1,"press",1,"GW","Go",1,"win","Win","win",156,"2",13
"283","DBGE0324",5,6,5,8,7,1267,632,638,-1,"press",1,"GAL","Go",1,"lose","Avoid","lose",157,"2",19
"284","DBGE0324",6,6,5,8,7,1504,510,614,1,"press",1,"GW","Go",1,"win","Win","win",160,"2",14
"285","DBGE0324",8,6,5,8,7,1746,960,0,1,"no_press",0,"NGW","noGo",1,"win","Win","win",161,"2",15
"286","DBGE0324",8,6,5,8,7,2817,607,0,1,"no_press",0,"NGW","noGo",1,"win","Win","win",163,"2",16
"287","DBGE0324",5,6,5,8,7,2528,549,680,-1,"press",1,"GAL","Go",1,"lose","Avoid","lose",165,"2",21
"288","DBGE0324",6,6,5,8,7,1666,536,655,1,"press",1,"GW","Go",1,"win","Win","win",166,"2",15
"289","DBGE0324",6,6,5,8,7,1942,677,646,1,"press",1,"GW","Go",1,"win","Win","win",168,"2",16
"290","DBGE0324",7,6,5,8,7,2074,557,0,-1,"no_press",0,"NGL","noGo",1,"lose","Avoid","lose",169,"2",15
"291","DBGE0324",8,6,5,8,7,1344,764,0,1,"no_press",0,"NGW","noGo",1,"win","Win","win",170,"2",17
"292","DBGE0324",6,6,5,8,7,1592,758,1034,1,"press",1,"GW","Go",1,"win","Win","win",171,"2",17
"293","DBGE0324",8,6,5,8,7,3412,563,0,1,"no_press",0,"NGW","noGo",1,"win","Win","win",172,"2",18
"294","DBGE0324",6,6,5,8,7,2272,905,957,1,"press",1,"GW","Go",1,"win","Win","win",173,"2",18
"295","DBGE0324",6,6,5,8,7,1715,849,613,1,"press",1,"GW","Go",1,"win","Win","win",174,"2",19
"296","DBGE0324",6,6,5,8,7,2388,706,693,1,"press",1,"GW","Go",1,"win","Win","win",176,"2",21
"297","DBGE0324",8,6,5,8,7,2448,895,0,1,"no_press",0,"NGW","noGo",1,"win","Win","win",180,"2",19
"298","DBGE0324",8,6,5,8,7,1537,760,0,1,"no_press",0,"NGW","noGo",1,"win","Win","win",185,"2",21
"299","DBGE0324",7,6,5,8,7,1869,502,0,-1,"no_press",0,"NGL","noGo",1,"lose","Avoid","lose",187,"2",20
"300","DBGE0324",8,6,5,8,7,2664,551,0,1,"no_press",0,"NGW","noGo",1,"win","Win","win",192,"2",23
"301","DBGE0324",6,6,5,8,7,1635,668,461,1,"press",1,"GW","Go",1,"win","Win","win",193,"2",24
"302","DBGE0324",8,6,5,8,7,1948,886,0,1,"no_press",0,"NGW","noGo",1,"win","Win","win",195,"2",24
"303","DBGE0324",7,6,5,8,7,1855,785,0,-1,"no_press",0,"NGL","noGo",1,"lose","Avoid","lose",197,"2",24
"304","DBGE0324",6,6,5,8,7,2548,752,767,1,"press",1,"GW","Go",1,"win","Win","win",200,"2",25
"305","DBGE0324",11,12,9,10,11,1802,952,495,-1,"press",1,"NGL","noGo",0,"lose","Avoid","lose",203,"3",1
"306","DBGE0324",11,12,9,10,11,2122,804,1006,-1,"press",1,"NGL","noGo",0,"lose","Avoid","lose",204,"3",2
"307","DBGE0324",10,12,9,10,11,1452,969,954,1,"press",1,"NGW","noGo",0,"win","Win","win",206,"3",2
"308","DBGE0324",9,12,9,10,11,1807,908,716,-1,"press",1,"GAL","Go",1,"lose","Avoid","lose",208,"3",3
"309","DBGE0324",9,12,9,10,11,2571,829,808,-1,"press",1,"GAL","Go",1,"lose","Avoid","lose",212,"3",4
"310","DBGE0324",12,12,9,10,11,2283,573,0,1,"no_press",0,"GW","Go",0,"win","Win","win",216,"3",2
"311","DBGE0324",10,12,9,10,11,1484,723,624,1,"press",1,"NGW","noGo",0,"win","Win","win",218,"3",5
"312","DBGE0324",9,12,9,10,11,2490,969,646,-1,"press",1,"GAL","Go",1,"lose","Avoid","lose",220,"3",7
"313","DBGE0324",9,12,9,10,11,1753,629,612,-1,"press",1,"GAL","Go",1,"lose","Avoid","lose",223,"3",9
"314","DBGE0324",12,12,9,10,11,2323,666,0,1,"no_press",0,"GW","Go",0,"win","Win","win",226,"3",3
"315","DBGE0324",11,12,9,10,11,1889,673,0,-1,"no_press",0,"NGL","noGo",1,"lose","Avoid","lose",230,"3",7
"316","DBGE0324",12,12,9,10,11,2131,991,0,1,"no_press",0,"GW","Go",0,"win","Win","win",232,"3",4
"317","DBGE0324",12,12,9,10,11,2357,638,0,1,"no_press",0,"GW","Go",0,"win","Win","win",239,"3",6
"318","DBGE0324",11,12,9,10,11,2380,562,0,-1,"no_press",0,"NGL","noGo",1,"lose","Avoid","lose",242,"3",12
"319","DBGE0324",10,12,9,10,11,2285,799,676,1,"press",1,"NGW","noGo",0,"win","Win","win",253,"3",16
"320","DBGE0324",9,12,9,10,11,2206,714,737,-1,"press",1,"GAL","Go",1,"lose","Avoid","lose",257,"3",13
"321","DBGE0324",11,12,9,10,11,1462,689,0,-1,"no_press",0,"NGL","noGo",1,"lose","Avoid","lose",259,"3",17
"322","DBGE0324",11,12,9,10,11,1326,573,0,-1,"no_press",0,"NGL","noGo",1,"lose","Avoid","lose",272,"3",22
"323","DBGE0324",10,12,9,10,11,1764,590,503,1,"press",1,"NGW","noGo",0,"win","Win","win",281,"3",22
"324","DBGE0324",12,12,9,10,11,1729,897,0,1,"no_press",0,"GW","Go",0,"win","Win","win",291,"3",23
"325","DBGE0324",11,12,9,10,11,1000,980,0,-1,"no_press",0,"NGL","noGo",1,"lose","Avoid","lose",295,"3",25
"326","DBGE0324",16,16,13,14,15,2166,854,573,1,"press",1,"GW","Go",1,"win","Win","win",302,"4",1
"327","DBGE0324",14,16,13,14,15,1364,752,0,1,"no_press",0,"NGW","noGo",1,"win","Win","win",305,"4",2
"328","DBGE0324",16,16,13,14,15,2664,707,813,1,"press",1,"GW","Go",1,"win","Win","win",306,"4",2
"329","DBGE0324",14,16,13,14,15,2209,892,0,1,"no_press",0,"NGW","noGo",1,"win","Win","win",308,"4",3
"330","DBGE0324",14,16,13,14,15,2822,942,0,1,"no_press",0,"NGW","noGo",1,"win","Win","win",310,"4",4
"331","DBGE0324",16,16,13,14,15,1552,918,601,1,"press",1,"GW","Go",1,"win","Win","win",311,"4",4
"332","DBGE0324",15,16,13,14,15,1562,887,876,-1,"press",1,"NGL","noGo",0,"lose","Avoid","lose",313,"4",2
"333","DBGE0324",16,16,13,14,15,1555,703,1118,1,"press",1,"GW","Go",1,"win","Win","win",314,"4",5
"334","DBGE0324",14,16,13,14,15,2072,579,0,1,"no_press",0,"NGW","noGo",1,"win","Win","win",319,"4",5
"335","DBGE0324",16,16,13,14,15,2855,813,578,1,"press",1,"GW","Go",1,"win","Win","win",321,"4",6
"336","DBGE0324",13,16,13,14,15,2066,687,677,-1,"press",1,"GAL","Go",1,"lose","Avoid","lose",324,"4",7
"337","DBGE0324",16,16,13,14,15,2299,644,642,1,"press",1,"GW","Go",1,"win","Win","win",325,"4",7
"338","DBGE0324",15,16,13,14,15,2372,794,0,-1,"no_press",0,"NGL","noGo",1,"lose","Avoid","lose",326,"4",7
"339","DBGE0324",14,16,13,14,15,1559,751,0,1,"no_press",0,"NGW","noGo",1,"win","Win","win",327,"4",6
"340","DBGE0324",16,16,13,14,15,2303,688,600,1,"press",1,"GW","Go",1,"win","Win","win",328,"4",8
"341","DBGE0324",14,16,13,14,15,1346,989,0,1,"no_press",0,"NGW","noGo",1,"win","Win","win",329,"4",7
"342","DBGE0324",14,16,13,14,15,2085,569,0,1,"no_press",0,"NGW","noGo",1,"win","Win","win",330,"4",8
"343","DBGE0324",16,16,13,14,15,2745,834,649,1,"press",1,"GW","Go",1,"win","Win","win",332,"4",9
"344","DBGE0324",14,16,13,14,15,2942,927,0,1,"no_press",0,"NGW","noGo",1,"win","Win","win",333,"4",10
"345","DBGE0324",13,16,13,14,15,2250,978,704,-1,"press",1,"GAL","Go",1,"lose","Avoid","lose",337,"4",9
"346","DBGE0324",14,16,13,14,15,1423,818,0,1,"no_press",0,"NGW","noGo",1,"win","Win","win",338,"4",11
"347","DBGE0324",16,16,13,14,15,1954,837,562,1,"press",1,"GW","Go",1,"win","Win","win",342,"4",10
"348","DBGE0324",16,16,13,14,15,2304,874,757,1,"press",1,"GW","Go",1,"win","Win","win",346,"4",11
"349","DBGE0324",15,16,13,14,15,1511,844,0,-1,"no_press",0,"NGL","noGo",1,"lose","Avoid","lose",351,"4",13
"350","DBGE0324",16,16,13,14,15,2103,796,595,1,"press",1,"GW","Go",1,"win","Win","win",352,"4",14
"351","DBGE0324",16,16,13,14,15,1237,909,467,1,"press",1,"GW","Go",1,"win","Win","win",355,"4",15
"352","DBGE0324",15,16,13,14,15,3099,556,0,-1,"no_press",0,"NGL","noGo",1,"lose","Avoid","lose",356,"4",15
"353","DBGE0324",16,16,13,14,15,2349,675,688,1,"press",1,"GW","Go",1,"win","Win","win",357,"4",16
"354","DBGE0324",14,16,13,14,15,1372,534,0,1,"no_press",0,"NGW","noGo",1,"win","Win","win",358,"4",13
"355","DBGE0324",14,16,13,14,15,1511,554,0,1,"no_press",0,"NGW","noGo",1,"win","Win","win",360,"4",15
"356","DBGE0324",14,16,13,14,15,1166,688,0,1,"no_press",0,"NGW","noGo",1,"win","Win","win",362,"4",16
"357","DBGE0324",16,16,13,14,15,2004,685,578,1,"press",1,"GW","Go",1,"win","Win","win",363,"4",17
"358","DBGE0324",16,16,13,14,15,2257,603,646,1,"press",1,"GW","Go",1,"win","Win","win",366,"4",18
"359","DBGE0324",15,16,13,14,15,2518,531,0,-1,"no_press",0,"NGL","noGo",1,"lose","Avoid","lose",367,"4",17
"360","DBGE0324",16,16,13,14,15,1990,697,580,1,"press",1,"GW","Go",1,"win","Win","win",371,"4",19
"361","DBGE0324",16,16,13,14,15,1597,970,670,1,"press",1,"GW","Go",1,"win","Win","win",375,"4",21
"362","DBGE0324",16,16,13,14,15,1275,851,538,1,"press",1,"GW","Go",1,"win","Win","win",377,"4",23
"363","DBGE0324",13,16,13,14,15,1246,714,540,-1,"press",1,"GAL","Go",1,"lose","Avoid","lose",378,"4",19
"364","DBGE0324",14,16,13,14,15,2125,759,0,1,"no_press",0,"NGW","noGo",1,"win","Win","win",379,"4",18
"365","DBGE0324",14,16,13,14,15,2245,852,0,1,"no_press",0,"NGW","noGo",1,"win","Win","win",380,"4",19
"366","DBGE0324",16,16,13,14,15,1485,761,638,1,"press",1,"GW","Go",1,"win","Win","win",381,"4",24
"367","DBGE0324",13,16,13,14,15,1000,985,865,-1,"press",1,"GAL","Go",1,"lose","Avoid","lose",385,"4",22
"368","DBGE0324",14,16,13,14,15,2176,580,0,1,"no_press",0,"NGW","noGo",1,"win","Win","win",387,"4",20
"369","DBGE0324",14,16,13,14,15,1655,695,0,1,"no_press",0,"NGW","noGo",1,"win","Win","win",389,"4",21
"370","DBGE0324",15,16,13,14,15,2864,870,0,-1,"no_press",0,"NGL","noGo",1,"lose","Avoid","lose",390,"4",23
"371","DBGE0324",16,16,13,14,15,1702,948,570,1,"press",1,"GW","Go",1,"win","Win","win",391,"4",25
"372","DBGE0324",14,16,13,14,15,1433,678,0,1,"no_press",0,"NGW","noGo",1,"win","Win","win",392,"4",22
"373","DBGE0324",14,16,13,14,15,5000,948,0,1,"no_press",0,"NGW","noGo",1,"win","Win","win",395,"4",23
"374","DBGE0324",14,16,13,14,15,1861,756,0,1,"no_press",0,"NGW","noGo",1,"win","Win","win",398,"4",24
"375","DNHT0252",4,4,1,2,3,2336,593,567,1,"press",1,"GW","Go",1,"win","Win","win",2,"1",1
"376","DNHT0252",3,4,1,2,3,1883,678,974,-1,"press",1,"NGL","noGo",0,"lose","Avoid","lose",3,"1",1
"377","DNHT0252",4,4,1,2,3,1966,739,1480,1,"press",1,"GW","Go",1,"win","Win","win",5,"1",2
"378","DNHT0252",2,4,1,2,3,2283,970,0,1,"no_press",0,"NGW","noGo",1,"win","Win","win",7,"1",2
"379","DNHT0252",4,4,1,2,3,2129,574,794,1,"press",1,"GW","Go",1,"win","Win","win",9,"1",4
"380","DNHT0252",4,4,1,2,3,1964,809,458,1,"press",1,"GW","Go",1,"win","Win","win",11,"1",6
"381","DNHT0252",4,4,1,2,3,1845,611,431,1,"press",1,"GW","Go",1,"win","Win","win",12,"1",7
"382","DNHT0252",1,4,1,2,3,3412,780,0,-1,"no_press",0,"GAL","Go",0,"lose","Avoid","lose",13,"1",2
"383","DNHT0252",4,4,1,2,3,1206,817,698,1,"press",1,"GW","Go",1,"win","Win","win",14,"1",8
"384","DNHT0252",4,4,1,2,3,1596,703,487,1,"press",1,"GW","Go",1,"win","Win","win",15,"1",9
"385","DNHT0252",3,4,1,2,3,2528,580,0,-1,"no_press",0,"NGL","noGo",1,"lose","Avoid","lose",16,"1",3
"386","DNHT0252",4,4,1,2,3,1678,753,618,1,"press",1,"GW","Go",1,"win","Win","win",17,"1",10
"387","DNHT0252",3,4,1,2,3,1959,762,0,-1,"no_press",0,"NGL","noGo",1,"lose","Avoid","lose",19,"1",5
"388","DNHT0252",1,4,1,2,3,1869,692,0,-1,"no_press",0,"GAL","Go",0,"lose","Avoid","lose",20,"1",3
"389","DNHT0252",4,4,1,2,3,1482,635,604,1,"press",1,"GW","Go",1,"win","Win","win",21,"1",11
"390","DNHT0252",1,4,1,2,3,2464,892,0,-1,"no_press",0,"GAL","Go",0,"lose","Avoid","lose",22,"1",4
"391","DNHT0252",2,4,1,2,3,2513,734,0,1,"no_press",0,"NGW","noGo",1,"win","Win","win",23,"1",3
"392","DNHT0252",1,4,1,2,3,1453,561,0,-1,"no_press",0,"GAL","Go",0,"lose","Avoid","lose",25,"1",5
"393","DNHT0252",2,4,1,2,3,2287,906,1176,1,"press",1,"NGW","noGo",0,"win","Win","win",26,"1",5
"394","DNHT0252",4,4,1,2,3,1246,661,680,1,"press",1,"GW","Go",1,"win","Win","win",27,"1",12
"395","DNHT0252",1,4,1,2,3,1432,582,0,-1,"no_press",0,"GAL","Go",0,"lose","Avoid","lose",29,"1",6
"396","DNHT0252",4,4,1,2,3,1942,904,757,1,"press",1,"GW","Go",1,"win","Win","win",31,"1",14
"397","DNHT0252",2,4,1,2,3,2388,803,797,1,"press",1,"NGW","noGo",0,"win","Win","win",32,"1",7
"398","DNHT0252",4,4,1,2,3,2057,652,607,1,"press",1,"GW","Go",1,"win","Win","win",33,"1",15
"399","DNHT0252",1,4,1,2,3,1932,657,0,-1,"no_press",0,"GAL","Go",0,"lose","Avoid","lose",35,"1",7
"400","DNHT0252",1,4,1,2,3,1709,641,0,-1,"no_press",0,"GAL","Go",0,"lose","Avoid","lose",37,"1",9
"401","DNHT0252",4,4,1,2,3,1511,988,716,1,"press",1,"GW","Go",1,"win","Win","win",39,"1",16
"402","DNHT0252",1,4,1,2,3,2523,882,0,-1,"no_press",0,"GAL","Go",0,"lose","Avoid","lose",40,"1",10
"403","DNHT0252",1,4,1,2,3,1479,946,0,-1,"no_press",0,"GAL","Go",0,"lose","Avoid","lose",42,"1",12
"404","DNHT0252",4,4,1,2,3,1908,639,526,1,"press",1,"GW","Go",1,"win","Win","win",43,"1",17
"405","DNHT0252",2,4,1,2,3,2998,975,943,1,"press",1,"NGW","noGo",0,"win","Win","win",45,"1",8
"406","DNHT0252",1,4,1,2,3,2794,743,0,-1,"no_press",0,"GAL","Go",0,"lose","Avoid","lose",46,"1",13
"407","DNHT0252",1,4,1,2,3,1614,758,0,-1,"no_press",0,"GAL","Go",0,"lose","Avoid","lose",48,"1",14
"408","DNHT0252",1,4,1,2,3,2306,683,0,-1,"no_press",0,"GAL","Go",0,"lose","Avoid","lose",51,"1",15
"409","DNHT0252",4,4,1,2,3,3016,513,545,1,"press",1,"GW","Go",1,"win","Win","win",57,"1",18
"410","DNHT0252",2,4,1,2,3,2063,601,496,1,"press",1,"NGW","noGo",0,"win","Win","win",58,"1",14
"411","DNHT0252",1,4,1,2,3,5000,522,0,-1,"no_press",0,"GAL","Go",0,"lose","Avoid","lose",61,"1",16
"412","DNHT0252",3,4,1,2,3,3626,959,0,-1,"no_press",0,"NGL","noGo",1,"lose","Avoid","lose",62,"1",13
"413","DNHT0252",4,4,1,2,3,1289,639,549,1,"press",1,"GW","Go",1,"win","Win","win",64,"1",19
"414","DNHT0252",4,4,1,2,3,2785,823,865,1,"press",1,"GW","Go",1,"win","Win","win",70,"1",21
"415","DNHT0252",4,4,1,2,3,1634,800,853,1,"press",1,"GW","Go",1,"win","Win","win",71,"1",22
"416","DNHT0252",1,4,1,2,3,2239,765,1028,-1,"press",1,"GAL","Go",1,"lose","Avoid","lose",75,"1",17
"417","DNHT0252",1,4,1,2,3,2980,820,0,-1,"no_press",0,"GAL","Go",0,"lose","Avoid","lose",76,"1",18
"418","DNHT0252",2,4,1,2,3,1289,887,620,1,"press",1,"NGW","noGo",0,"win","Win","win",77,"1",20
"419","DNHT0252",3,4,1,2,3,2380,860,0,-1,"no_press",0,"NGL","noGo",1,"lose","Avoid","lose",80,"1",18
"420","DNHT0252",1,4,1,2,3,1537,969,0,-1,"no_press",0,"GAL","Go",0,"lose","Avoid","lose",85,"1",20
"421","DNHT0252",1,4,1,2,3,2885,777,0,-1,"no_press",0,"GAL","Go",0,"lose","Avoid","lose",89,"1",21
"422","DNHT0252",1,4,1,2,3,2036,890,0,-1,"no_press",0,"GAL","Go",0,"lose","Avoid","lose",92,"1",22
"423","DNHT0252",1,4,1,2,3,2367,917,0,-1,"no_press",0,"GAL","Go",0,"lose","Avoid","lose",93,"1",23
"424","DNHT0252",4,4,1,2,3,1597,832,676,1,"press",1,"GW","Go",1,"win","Win","win",94,"1",24
"425","DNHT0252",3,4,1,2,3,2004,957,0,-1,"no_press",0,"NGL","noGo",1,"lose","Avoid","lose",95,"1",24
"426","DNHT0252",4,4,1,2,3,1742,707,1352,1,"press",1,"GW","Go",1,"win","Win","win",98,"1",25
"427","DNHT0252",1,4,1,2,3,1491,514,0,-1,"no_press",0,"GAL","Go",0,"lose","Avoid","lose",99,"1",24
"428","DNHT0252",6,6,7,8,5,1494,930,1477,1,"press",1,"GW","Go",1,"win","Win","win",101,"2",1
"429","DNHT0252",6,6,7,8,5,2195,561,1034,1,"press",1,"GW","Go",1,"win","Win","win",104,"2",2
"430","DNHT0252",6,6,7,8,5,1795,725,598,1,"press",1,"GW","Go",1,"win","Win","win",107,"2",4
"431","DNHT0252",7,6,7,8,5,1785,872,666,-1,"press",1,"GAL","Go",1,"lose","Avoid","lose",109,"2",2
"432","DNHT0252",7,6,7,8,5,2930,826,0,-1,"no_press",0,"GAL","Go",0,"lose","Avoid","lose",110,"2",3
"433","DNHT0252",6,6,7,8,5,1000,671,1155,1,"press",1,"GW","Go",1,"win","Win","win",111,"2",5
"434","DNHT0252",8,6,7,8,5,2538,998,0,1,"no_press",0,"NGW","noGo",1,"win","Win","win",113,"2",2
"435","DNHT0252",7,6,7,8,5,1237,938,0,-1,"no_press",0,"GAL","Go",0,"lose","Avoid","lose",115,"2",5
"436","DNHT0252",5,6,7,8,5,2349,875,0,-1,"no_press",0,"NGL","noGo",1,"lose","Avoid","lose",118,"2",5
"437","DNHT0252",6,6,7,8,5,1250,758,1093,1,"press",1,"GW","Go",1,"win","Win","win",119,"2",6
"438","DNHT0252",7,6,7,8,5,2337,934,0,-1,"no_press",0,"GAL","Go",0,"lose","Avoid","lose",121,"2",6
"439","DNHT0252",7,6,7,8,5,1465,745,0,-1,"no_press",0,"GAL","Go",0,"lose","Avoid","lose",123,"2",8
"440","DNHT0252",6,6,7,8,5,2315,779,1199,1,"press",1,"GW","Go",1,"win","Win","win",124,"2",7
"441","DNHT0252",7,6,7,8,5,1967,622,0,-1,"no_press",0,"GAL","Go",0,"lose","Avoid","lose",126,"2",9
"442","DNHT0252",6,6,7,8,5,1547,902,1423,1,"press",1,"GW","Go",1,"win","Win","win",128,"2",8
"443","DNHT0252",6,6,7,8,5,1326,821,1081,1,"press",1,"GW","Go",1,"win","Win","win",129,"2",9
"444","DNHT0252",8,6,7,8,5,1483,838,0,1,"no_press",0,"NGW","noGo",1,"win","Win","win",130,"2",4
"445","DNHT0252",6,6,7,8,5,2001,653,1087,1,"press",1,"GW","Go",1,"win","Win","win",132,"2",11
"446","DNHT0252",7,6,7,8,5,1385,561,0,-1,"no_press",0,"GAL","Go",0,"lose","Avoid","lose",133,"2",10
"447","DNHT0252",8,6,7,8,5,2104,806,0,1,"no_press",0,"NGW","noGo",1,"win","Win","win",134,"2",5
"448","DNHT0252",6,6,7,8,5,2019,507,1404,1,"press",1,"GW","Go",1,"win","Win","win",136,"2",12
"449","DNHT0252",8,6,7,8,5,2257,971,0,1,"no_press",0,"NGW","noGo",1,"win","Win","win",137,"2",6
"450","DNHT0252",7,6,7,8,5,2080,560,0,-1,"no_press",0,"GAL","Go",0,"lose","Avoid","lose",138,"2",11
"451","DNHT0252",7,6,7,8,5,3876,983,0,-1,"no_press",0,"GAL","Go",0,"lose","Avoid","lose",139,"2",12
"452","DNHT0252",6,6,7,8,5,2942,641,1366,1,"press",1,"GW","Go",1,"win","Win","win",140,"2",13
"453","DNHT0252",6,6,7,8,5,2887,729,549,1,"press",1,"GW","Go",1,"win","Win","win",144,"2",15
"454","DNHT0252",7,6,7,8,5,1678,971,0,-1,"no_press",0,"GAL","Go",0,"lose","Avoid","lose",145,"2",13
"455","DNHT0252",8,6,7,8,5,1807,863,838,1,"press",1,"NGW","noGo",0,"win","Win","win",146,"2",8
"456","DNHT0252",7,6,7,8,5,2615,748,0,-1,"no_press",0,"GAL","Go",0,"lose","Avoid","lose",148,"2",14
"457","DNHT0252",7,6,7,8,5,2234,912,0,-1,"no_press",0,"GAL","Go",0,"lose","Avoid","lose",149,"2",15
"458","DNHT0252",8,6,7,8,5,1939,693,984,1,"press",1,"NGW","noGo",0,"win","Win","win",150,"2",9
"459","DNHT0252",8,6,7,8,5,2291,500,535,1,"press",1,"NGW","noGo",0,"win","Win","win",153,"2",11
"460","DNHT0252",5,6,7,8,5,1598,742,0,-1,"no_press",0,"NGL","noGo",1,"lose","Avoid","lose",158,"2",13
"461","DNHT0252",6,6,7,8,5,2547,847,675,1,"press",1,"GW","Go",1,"win","Win","win",159,"2",17
"462","DNHT0252",8,6,7,8,5,2304,528,734,1,"press",1,"NGW","noGo",0,"win","Win","win",161,"2",16
"463","DNHT0252",6,6,7,8,5,1275,741,506,1,"press",1,"GW","Go",1,"win","Win","win",164,"2",19
"464","DNHT0252",5,6,7,8,5,1588,691,0,-1,"no_press",0,"NGL","noGo",1,"lose","Avoid","lose",169,"2",15
"465","DNHT0252",7,6,7,8,5,1554,963,0,-1,"no_press",0,"GAL","Go",0,"lose","Avoid","lose",170,"2",16
"466","DNHT0252",6,6,7,8,5,1759,670,774,1,"press",1,"GW","Go",1,"win","Win","win",173,"2",20
"467","DNHT0252",7,6,7,8,5,2359,974,0,-1,"no_press",0,"GAL","Go",0,"lose","Avoid","lose",175,"2",17
"468","DNHT0252",7,6,7,8,5,2493,655,0,-1,"no_press",0,"GAL","Go",0,"lose","Avoid","lose",177,"2",18
"469","DNHT0252",6,6,7,8,5,1354,547,512,1,"press",1,"GW","Go",1,"win","Win","win",180,"2",21
"470","DNHT0252",7,6,7,8,5,3029,643,0,-1,"no_press",0,"GAL","Go",0,"lose","Avoid","lose",182,"2",20
"471","DNHT0252",6,6,7,8,5,1841,727,794,1,"press",1,"GW","Go",1,"win","Win","win",183,"2",22
"472","DNHT0252",7,6,7,8,5,2506,766,0,-1,"no_press",0,"GAL","Go",0,"lose","Avoid","lose",187,"2",22
"473","DNHT0252",7,6,7,8,5,3099,530,0,-1,"no_press",0,"GAL","Go",0,"lose","Avoid","lose",188,"2",23
"474","DNHT0252",7,6,7,8,5,1524,517,0,-1,"no_press",0,"GAL","Go",0,"lose","Avoid","lose",190,"2",24
"475","DNHT0252",5,6,7,8,5,1588,888,0,-1,"no_press",0,"NGL","noGo",1,"lose","Avoid","lose",194,"2",23
"476","DNHT0252",7,6,7,8,5,1484,958,0,-1,"no_press",0,"GAL","Go",0,"lose","Avoid","lose",196,"2",25
"477","DNHT0252",6,6,7,8,5,1931,797,817,1,"press",1,"GW","Go",1,"win","Win","win",197,"2",25
"478","DNHT0252",5,6,7,8,5,1932,721,0,-1,"no_press",0,"NGL","noGo",1,"lose","Avoid","lose",198,"2",25
"479","DNHT0252",12,12,9,10,11,3560,644,753,1,"press",1,"GW","Go",1,"win","Win","win",201,"3",1
"480","DNHT0252",12,12,9,10,11,2122,671,664,1,"press",1,"GW","Go",1,"win","Win","win",202,"3",2
"481","DNHT0252",11,12,9,10,11,1864,582,1158,-1,"press",1,"NGL","noGo",0,"lose","Avoid","lose",203,"3",1
"482","DNHT0252",11,12,9,10,11,2335,531,0,-1,"no_press",0,"NGL","noGo",1,"lose","Avoid","lose",205,"3",3
"483","DNHT0252",12,12,9,10,11,2836,980,1216,1,"press",1,"GW","Go",1,"win","Win","win",207,"3",3
"484","DNHT0252",11,12,9,10,11,2369,758,0,-1,"no_press",0,"NGL","noGo",1,"lose","Avoid","lose",208,"3",4
"485","DNHT0252",11,12,9,10,11,2074,780,0,-1,"no_press",0,"NGL","noGo",1,"lose","Avoid","lose",215,"3",5
"486","DNHT0252",9,12,9,10,11,1509,652,0,-1,"no_press",0,"GAL","Go",0,"lose","Avoid","lose",217,"3",6
"487","DNHT0252",12,12,9,10,11,1825,829,639,1,"press",1,"GW","Go",1,"win","Win","win",222,"3",5
"488","DNHT0252",12,12,9,10,11,2818,830,895,1,"press",1,"GW","Go",1,"win","Win","win",231,"3",6
"489","DNHT0252",9,12,9,10,11,1990,689,725,-1,"press",1,"GAL","Go",1,"lose","Avoid","lose",234,"3",9
"490","DNHT0252",9,12,9,10,11,2855,973,0,-1,"no_press",0,"GAL","Go",0,"lose","Avoid","lose",235,"3",10
"491","DNHT0252",9,12,9,10,11,2588,867,0,-1,"no_press",0,"GAL","Go",0,"lose","Avoid","lose",236,"3",11
"492","DNHT0252",10,12,9,10,11,2524,835,638,1,"press",1,"NGW","noGo",0,"win","Win","win",238,"3",9
"493","DNHT0252",9,12,9,10,11,2664,992,0,-1,"no_press",0,"GAL","Go",0,"lose","Avoid","lose",239,"3",12
"494","DNHT0252",9,12,9,10,11,1461,880,0,-1,"no_press",0,"GAL","Go",0,"lose","Avoid","lose",240,"3",13
"495","DNHT0252",11,12,9,10,11,1344,517,0,-1,"no_press",0,"NGL","noGo",1,"lose","Avoid","lose",241,"3",13
"496","DNHT0252",12,12,9,10,11,1954,505,975,1,"press",1,"GW","Go",1,"win","Win","win",242,"3",7
"497","DNHT0252",9,12,9,10,11,2250,789,0,-1,"no_press",0,"GAL","Go",0,"lose","Avoid","lose",244,"3",14
"498","DNHT0252",12,12,9,10,11,2019,605,604,1,"press",1,"GW","Go",1,"win","Win","win",245,"3",8
"499","DNHT0252",12,12,9,10,11,1829,773,801,1,"press",1,"GW","Go",1,"win","Win","win",247,"3",9
"500","DNHT0252",12,12,9,10,11,2977,605,652,1,"press",1,"GW","Go",1,"win","Win","win",251,"3",11
"501","DNHT0252",12,12,9,10,11,2455,828,576,1,"press",1,"GW","Go",1,"win","Win","win",253,"3",13
"502","DNHT0252",9,12,9,10,11,2253,718,0,-1,"no_press",0,"GAL","Go",0,"lose","Avoid","lose",255,"3",16
"503","DNHT0252",12,12,9,10,11,2184,667,630,1,"press",1,"GW","Go",1,"win","Win","win",256,"3",14
"504","DNHT0252",12,12,9,10,11,2490,752,610,1,"press",1,"GW","Go",1,"win","Win","win",260,"3",15
"505","DNHT0252",9,12,9,10,11,1578,963,0,-1,"no_press",0,"GAL","Go",0,"lose","Avoid","lose",265,"3",19
"506","DNHT0252",12,12,9,10,11,2080,830,584,1,"press",1,"GW","Go",1,"win","Win","win",269,"3",17
"507","DNHT0252",10,12,9,10,11,2344,882,1129,1,"press",1,"NGW","noGo",0,"win","Win","win",273,"3",17
"508","DNHT0252",12,12,9,10,11,1963,817,1167,1,"press",1,"GW","Go",1,"win","Win","win",274,"3",18
"509","DNHT0252",12,12,9,10,11,2503,518,1349,1,"press",1,"GW","Go",1,"win","Win","win",275,"3",19
"510","DNHT0252",9,12,9,10,11,1423,990,0,-1,"no_press",0,"GAL","Go",0,"lose","Avoid","lose",276,"3",20
"511","DNHT0252",9,12,9,10,11,2330,787,0,-1,"no_press",0,"GAL","Go",0,"lose","Avoid","lose",277,"3",21
"512","DNHT0252",11,12,9,10,11,1655,780,0,-1,"no_press",0,"NGL","noGo",1,"lose","Avoid","lose",278,"3",21
"513","DNHT0252",9,12,9,10,11,1848,643,0,-1,"no_press",0,"GAL","Go",0,"lose","Avoid","lose",279,"3",22
"514","DNHT0252",9,12,9,10,11,2372,543,0,-1,"no_press",0,"GAL","Go",0,"lose","Avoid","lose",280,"3",23
"515","DNHT0252",12,12,9,10,11,1267,925,1238,1,"press",1,"GW","Go",1,"win","Win","win",281,"3",20
"516","DNHT0252",12,12,9,10,11,2579,977,1260,1,"press",1,"GW","Go",1,"win","Win","win",284,"3",21
"517","DNHT0252",12,12,9,10,11,1249,882,564,1,"press",1,"GW","Go",1,"win","Win","win",286,"3",22
"518","DNHT0252",12,12,9,10,11,2451,762,1085,1,"press",1,"GW","Go",1,"win","Win","win",287,"3",23
"519","DNHT0252",10,12,9,10,11,1000,595,511,1,"press",1,"NGW","noGo",0,"win","Win","win",289,"3",20
"520","DNHT0252",10,12,9,10,11,1779,762,736,1,"press",1,"NGW","noGo",0,"win","Win","win",292,"3",21
"521","DNHT0252",9,12,9,10,11,1615,961,0,-1,"no_press",0,"GAL","Go",0,"lose","Avoid","lose",293,"3",25
"522","DNHT0252",12,12,9,10,11,1826,877,586,1,"press",1,"GW","Go",1,"win","Win","win",295,"3",24
"523","DNHT0252",10,12,9,10,11,2822,629,665,1,"press",1,"NGW","noGo",0,"win","Win","win",297,"3",23
"524","DNHT0252",16,16,13,14,15,1824,999,1372,1,"press",1,"GW","Go",1,"win","Win","win",301,"4",1
"525","DNHT0252",16,16,13,14,15,1761,557,698,1,"press",1,"GW","Go",1,"win","Win","win",302,"4",2
"526","DNHT0252",13,16,13,14,15,1189,549,0,-1,"no_press",0,"GAL","Go",0,"lose","Avoid","lose",304,"4",2
"527","DNHT0252",15,16,13,14,15,1191,676,602,-1,"press",1,"NGL","noGo",0,"lose","Avoid","lose",306,"4",1
"528","DNHT0252",14,16,13,14,15,2817,727,780,1,"press",1,"NGW","noGo",0,"win","Win","win",308,"4",2
"529","DNHT0252",13,16,13,14,15,1544,925,0,-1,"no_press",0,"GAL","Go",0,"lose","Avoid","lose",309,"4",3
"530","DNHT0252",16,16,13,14,15,1509,504,595,1,"press",1,"GW","Go",1,"win","Win","win",310,"4",4
"531","DNHT0252",16,16,13,14,15,2241,882,621,1,"press",1,"GW","Go",1,"win","Win","win",311,"4",5
"532","DNHT0252",13,16,13,14,15,2206,875,0,-1,"no_press",0,"GAL","Go",0,"lose","Avoid","lose",312,"4",4
"533","DNHT0252",16,16,13,14,15,1922,894,587,1,"press",1,"GW","Go",1,"win","Win","win",316,"4",7
"534","DNHT0252",16,16,13,14,15,2299,947,714,1,"press",1,"GW","Go",1,"win","Win","win",317,"4",8
"535","DNHT0252",15,16,13,14,15,2272,611,0,-1,"no_press",0,"NGL","noGo",1,"lose","Avoid","lose",322,"4",5
"536","DNHT0252",16,16,13,14,15,2285,839,542,1,"press",1,"GW","Go",1,"win","Win","win",326,"4",9
"537","DNHT0252",13,16,13,14,15,2086,777,0,-1,"no_press",0,"GAL","Go",0,"lose","Avoid","lose",329,"4",5
"538","DNHT0252",16,16,13,14,15,1229,956,945,1,"press",1,"GW","Go",1,"win","Win","win",330,"4",10
"539","DNHT0252",13,16,13,14,15,2125,878,0,-1,"no_press",0,"GAL","Go",0,"lose","Avoid","lose",331,"4",6
"540","DNHT0252",15,16,13,14,15,2226,591,0,-1,"no_press",0,"NGL","noGo",1,"lose","Avoid","lose",332,"4",8
"541","DNHT0252",13,16,13,14,15,1433,998,0,-1,"no_press",0,"GAL","Go",0,"lose","Avoid","lose",340,"4",8
"542","DNHT0252",13,16,13,14,15,1504,980,0,-1,"no_press",0,"GAL","Go",0,"lose","Avoid","lose",343,"4",10
"543","DNHT0252",15,16,13,14,15,2464,680,0,-1,"no_press",0,"NGL","noGo",1,"lose","Avoid","lose",344,"4",12
"544","DNHT0252",16,16,13,14,15,1951,802,714,1,"press",1,"GW","Go",1,"win","Win","win",345,"4",11
"545","DNHT0252",13,16,13,14,15,1715,914,0,-1,"no_press",0,"GAL","Go",0,"lose","Avoid","lose",350,"4",11
"546","DNHT0252",13,16,13,14,15,1888,920,0,-1,"no_press",0,"GAL","Go",0,"lose","Avoid","lose",351,"4",12
"547","DNHT0252",15,16,13,14,15,1187,670,0,-1,"no_press",0,"NGL","noGo",1,"lose","Avoid","lose",352,"4",15
"548","DNHT0252",13,16,13,14,15,1238,825,0,-1,"no_press",0,"GAL","Go",0,"lose","Avoid","lose",353,"4",13
"549","DNHT0252",13,16,13,14,15,1166,541,0,-1,"no_press",0,"GAL","Go",0,"lose","Avoid","lose",356,"4",14
"550","DNHT0252",14,16,13,14,15,1990,645,907,1,"press",1,"NGW","noGo",0,"win","Win","win",358,"4",15
"551","DNHT0252",13,16,13,14,15,2125,758,0,-1,"no_press",0,"GAL","Go",0,"lose","Avoid","lose",360,"4",15
"552","DNHT0252",16,16,13,14,15,2571,980,1260,1,"press",1,"GW","Go",1,"win","Win","win",362,"4",14
"553","DNHT0252",14,16,13,14,15,1000,554,1262,1,"press",1,"NGW","noGo",0,"win","Win","win",363,"4",17
"554","DNHT0252",14,16,13,14,15,2228,867,853,1,"press",1,"NGW","noGo",0,"win","Win","win",365,"4",19
"555","DNHT0252",14,16,13,14,15,2224,736,0,1,"no_press",0,"NGW","noGo",1,"win","Win","win",366,"4",20
"556","DNHT0252",13,16,13,14,15,3344,808,0,-1,"no_press",0,"GAL","Go",0,"lose","Avoid","lose",367,"4",16
"557","DNHT0252",16,16,13,14,15,1608,646,803,1,"press",1,"GW","Go",1,"win","Win","win",368,"4",15
"558","DNHT0252",16,16,13,14,15,1403,700,592,1,"press",1,"GW","Go",1,"win","Win","win",370,"4",16
"559","DNHT0252",13,16,13,14,15,1666,845,0,-1,"no_press",0,"GAL","Go",0,"lose","Avoid","lose",371,"4",18
"560","DNHT0252",16,16,13,14,15,1795,696,519,1,"press",1,"GW","Go",1,"win","Win","win",374,"4",18
"561","DNHT0252",16,16,13,14,15,1729,775,1025,1,"press",1,"GW","Go",1,"win","Win","win",376,"4",20
"562","DNHT0252",13,16,13,14,15,1495,607,0,-1,"no_press",0,"GAL","Go",0,"lose","Avoid","lose",377,"4",20
"563","DNHT0252",16,16,13,14,15,1753,665,681,1,"press",1,"GW","Go",1,"win","Win","win",380,"4",21
"564","DNHT0252",16,16,13,14,15,2176,721,717,1,"press",1,"GW","Go",1,"win","Win","win",382,"4",22
"565","DNHT0252",15,16,13,14,15,2601,920,0,-1,"no_press",0,"NGL","noGo",1,"lose","Avoid","lose",385,"4",20
"566","DNHT0252",13,16,13,14,15,1936,698,0,-1,"no_press",0,"GAL","Go",0,"lose","Avoid","lose",386,"4",22
"567","DNHT0252",13,16,13,14,15,1921,900,0,-1,"no_press",0,"GAL","Go",0,"lose","Avoid","lose",387,"4",23
"568","DNHT0252",16,16,13,14,15,1729,890,752,1,"press",1,"GW","Go",1,"win","Win","win",391,"4",23
"569","DNHT0252",14,16,13,14,15,2129,725,496,1,"press",1,"NGW","noGo",0,"win","Win","win",392,"4",25
"570","DNHT0252",16,16,13,14,15,1861,836,510,1,"press",1,"GW","Go",1,"win","Win","win",393,"4",24
"571","DNHT0252",13,16,13,14,15,1715,865,0,-1,"no_press",0,"GAL","Go",0,"lose","Avoid","lose",396,"4",24
"572","DNHT0252",13,16,13,14,15,2298,887,0,-1,"no_press",0,"GAL","Go",0,"lose","Avoid","lose",397,"4",25
"573","EMPTY0216",2,2,1,4,3,2645,523,0,1,"no_press",0,"GW","Go",0,"win","Win","win",3,"1",2
"574","EMPTY0216",3,2,1,4,3,2381,789,1087,-1,"press",1,"NGL","noGo",0,"lose","Avoid","lose",4,"1",1
"575","EMPTY0216",2,2,1,4,3,2184,545,0,1,"no_press",0,"GW","Go",0,"win","Win","win",7,"1",3
"576","EMPTY0216",2,2,1,4,3,1941,690,0,1,"no_press",0,"GW","Go",0,"win","Win","win",9,"1",5
"577","EMPTY0216",1,2,1,4,3,1463,544,620,-1,"press",1,"GAL","Go",1,"lose","Avoid","lose",18,"1",7
"578","EMPTY0216",3,2,1,4,3,2122,648,0,-1,"no_press",0,"NGL","noGo",1,"lose","Avoid","lose",20,"1",4
"579","EMPTY0216",3,2,1,4,3,1238,513,582,-1,"press",1,"NGL","noGo",0,"lose","Avoid","lose",26,"1",6
"580","EMPTY0216",1,2,1,4,3,2088,958,563,-1,"press",1,"GAL","Go",1,"lose","Avoid","lose",28,"1",10
"581","EMPTY0216",1,2,1,4,3,2274,685,0,-1,"no_press",0,"GAL","Go",0,"lose","Avoid","lose",31,"1",11
"582","EMPTY0216",3,2,1,4,3,1678,828,742,-1,"press",1,"NGL","noGo",0,"lose","Avoid","lose",34,"1",10
"583","EMPTY0216",2,2,1,4,3,2388,947,640,1,"press",1,"GW","Go",1,"win","Win","win",37,"1",11
"584","EMPTY0216",2,2,1,4,3,2887,733,959,1,"press",1,"GW","Go",1,"win","Win","win",42,"1",13
"585","EMPTY0216",4,2,1,4,3,2283,706,0,1,"no_press",0,"NGW","noGo",1,"win","Win","win",43,"1",7
"586","EMPTY0216",3,2,1,4,3,1267,779,767,-1,"press",1,"NGL","noGo",0,"lose","Avoid","lose",44,"1",11
"587","EMPTY0216",3,2,1,4,3,2444,672,526,-1,"press",1,"NGL","noGo",0,"lose","Avoid","lose",45,"1",12
"588","EMPTY0216",3,2,1,4,3,2087,676,0,-1,"no_press",0,"NGL","noGo",1,"lose","Avoid","lose",48,"1",13
"589","EMPTY0216",2,2,1,4,3,2490,811,1151,1,"press",1,"GW","Go",1,"win","Win","win",52,"1",14
"590","EMPTY0216",3,2,1,4,3,2072,827,0,-1,"no_press",0,"NGL","noGo",1,"lose","Avoid","lose",53,"1",15
"591","EMPTY0216",4,2,1,4,3,2380,866,547,1,"press",1,"NGW","noGo",0,"win","Win","win",56,"1",12
"592","EMPTY0216",4,2,1,4,3,2304,701,587,1,"press",1,"NGW","noGo",0,"win","Win","win",59,"1",13
"593","EMPTY0216",2,2,1,4,3,1965,699,990,1,"press",1,"GW","Go",1,"win","Win","win",60,"1",15
"594","EMPTY0216",2,2,1,4,3,1385,659,616,1,"press",1,"GW","Go",1,"win","Win","win",64,"1",16
"595","EMPTY0216",4,2,1,4,3,1461,986,0,1,"no_press",0,"NGW","noGo",1,"win","Win","win",65,"1",15
"596","EMPTY0216",4,2,1,4,3,2451,805,548,1,"press",1,"NGW","noGo",0,"win","Win","win",66,"1",16
"597","EMPTY0216",2,2,1,4,3,1752,974,965,1,"press",1,"GW","Go",1,"win","Win","win",70,"1",18
"598","EMPTY0216",3,2,1,4,3,1759,949,531,-1,"press",1,"NGL","noGo",0,"lose","Avoid","lose",71,"1",19
"599","EMPTY0216",3,2,1,4,3,1494,596,686,-1,"press",1,"NGL","noGo",0,"lose","Avoid","lose",74,"1",20
"600","EMPTY0216",4,2,1,4,3,3016,924,565,1,"press",1,"NGW","noGo",0,"win","Win","win",75,"1",19
"601","EMPTY0216",1,2,1,4,3,1552,644,0,-1,"no_press",0,"GAL","Go",0,"lose","Avoid","lose",76,"1",19
"602","EMPTY0216",3,2,1,4,3,1191,554,1116,-1,"press",1,"NGL","noGo",0,"lose","Avoid","lose",78,"1",21
"603","EMPTY0216",4,2,1,4,3,1784,580,608,1,"press",1,"NGW","noGo",0,"win","Win","win",79,"1",20
"604","EMPTY0216",3,2,1,4,3,1266,615,640,-1,"press",1,"NGL","noGo",0,"lose","Avoid","lose",80,"1",22
"605","EMPTY0216",1,2,1,4,3,1433,617,0,-1,"no_press",0,"GAL","Go",0,"lose","Avoid","lose",81,"1",21
"606","EMPTY0216",2,2,1,4,3,1598,876,416,1,"press",1,"GW","Go",1,"win","Win","win",82,"1",19
"607","EMPTY0216",3,2,1,4,3,2977,839,322,-1,"press",1,"NGL","noGo",0,"lose","Avoid","lose",83,"1",23
"608","EMPTY0216",2,2,1,4,3,1503,503,511,1,"press",1,"GW","Go",1,"win","Win","win",84,"1",20
"609","EMPTY0216",3,2,1,4,3,1504,981,1058,-1,"press",1,"NGL","noGo",0,"lose","Avoid","lose",86,"1",25
"610","EMPTY0216",2,2,1,4,3,1546,845,629,1,"press",1,"GW","Go",1,"win","Win","win",89,"1",21
"611","EMPTY0216",1,2,1,4,3,2228,843,806,-1,"press",1,"GAL","Go",1,"lose","Avoid","lose",92,"1",23
"612","EMPTY0216",2,2,1,4,3,2785,804,1159,1,"press",1,"GW","Go",1,"win","Win","win",94,"1",22
"613","EMPTY0216",2,2,1,4,3,2234,856,926,1,"press",1,"GW","Go",1,"win","Win","win",97,"1",23
"614","EMPTY0216",2,2,1,4,3,1166,536,473,1,"press",1,"GW","Go",1,"win","Win","win",98,"1",24
"615","EMPTY0216",2,2,1,4,3,1795,529,441,1,"press",1,"GW","Go",1,"win","Win","win",100,"1",25
"616","EMPTY0216",6,6,7,8,5,1000,566,895,1,"press",1,"GW","Go",1,"win","Win","win",101,"2",1
"617","EMPTY0216",8,6,7,8,5,1613,574,0,1,"no_press",0,"NGW","noGo",1,"win","Win","win",102,"2",1
"618","EMPTY0216",7,6,7,8,5,2538,927,0,-1,"no_press",0,"GAL","Go",0,"lose","Avoid","lose",104,"2",1
"619","EMPTY0216",5,6,7,8,5,1693,878,1046,-1,"press",1,"NGL","noGo",0,"lose","Avoid","lose",105,"2",1
"620","EMPTY0216",5,6,7,8,5,2306,635,0,-1,"no_press",0,"NGL","noGo",1,"lose","Avoid","lose",106,"2",2
"621","EMPTY0216",8,6,7,8,5,1536,521,0,1,"no_press",0,"NGW","noGo",1,"win","Win","win",107,"2",3
"622","EMPTY0216",5,6,7,8,5,2277,653,522,-1,"press",1,"NGL","noGo",0,"lose","Avoid","lose",109,"2",4
"623","EMPTY0216",5,6,7,8,5,2257,513,0,-1,"no_press",0,"NGL","noGo",1,"lose","Avoid","lose",111,"2",5
"624","EMPTY0216",8,6,7,8,5,1000,794,0,1,"no_press",0,"NGW","noGo",1,"win","Win","win",114,"2",4
"625","EMPTY0216",6,6,7,8,5,2234,910,683,1,"press",1,"GW","Go",1,"win","Win","win",115,"2",3
"626","EMPTY0216",8,6,7,8,5,1329,963,0,1,"no_press",0,"NGW","noGo",1,"win","Win","win",116,"2",5
"627","EMPTY0216",6,6,7,8,5,2074,641,917,1,"press",1,"GW","Go",1,"win","Win","win",118,"2",4
"628","EMPTY0216",8,6,7,8,5,1885,899,0,1,"no_press",0,"NGW","noGo",1,"win","Win","win",119,"2",6
"629","EMPTY0216",6,6,7,8,5,1885,968,588,1,"press",1,"GW","Go",1,"win","Win","win",120,"2",5
"630","EMPTY0216",6,6,7,8,5,2335,644,672,1,"press",1,"GW","Go",1,"win","Win","win",123,"2",6
"631","EMPTY0216",7,6,7,8,5,1825,602,512,-1,"press",1,"GAL","Go",1,"lose","Avoid","lose",126,"2",6
"632","EMPTY0216",7,6,7,8,5,2724,905,0,-1,"no_press",0,"GAL","Go",0,"lose","Avoid","lose",131,"2",9
"633","EMPTY0216",8,6,7,8,5,1452,684,0,1,"no_press",0,"NGW","noGo",1,"win","Win","win",132,"2",7
"634","EMPTY0216",5,6,7,8,5,2252,722,0,-1,"no_press",0,"NGL","noGo",1,"lose","Avoid","lose",135,"2",11
"635","EMPTY0216",7,6,7,8,5,2041,942,671,-1,"press",1,"GAL","Go",1,"lose","Avoid","lose",137,"2",11
"636","EMPTY0216",6,6,7,8,5,1485,907,651,1,"press",1,"GW","Go",1,"win","Win","win",141,"2",8
"637","EMPTY0216",8,6,7,8,5,1338,721,708,1,"press",1,"NGW","noGo",0,"win","Win","win",142,"2",11
"638","EMPTY0216",6,6,7,8,5,2337,697,839,1,"press",1,"GW","Go",1,"win","Win","win",143,"2",9
"639","EMPTY0216",6,6,7,8,5,2615,984,935,1,"press",1,"GW","Go",1,"win","Win","win",144,"2",10
"640","EMPTY0216",6,6,7,8,5,2745,829,619,1,"press",1,"GW","Go",1,"win","Win","win",146,"2",11
"641","EMPTY0216",8,6,7,8,5,2066,984,635,1,"press",1,"NGW","noGo",0,"win","Win","win",147,"2",13
"642","EMPTY0216",8,6,7,8,5,1671,705,0,1,"no_press",0,"NGW","noGo",1,"win","Win","win",148,"2",14
"643","EMPTY0216",6,6,7,8,5,1511,924,598,1,"press",1,"GW","Go",1,"win","Win","win",150,"2",12
"644","EMPTY0216",7,6,7,8,5,2299,986,0,-1,"no_press",0,"GAL","Go",0,"lose","Avoid","lose",151,"2",12
"645","EMPTY0216",6,6,7,8,5,2129,630,643,1,"press",1,"GW","Go",1,"win","Win","win",153,"2",13
"646","EMPTY0216",7,6,7,8,5,1453,693,0,-1,"no_press",0,"GAL","Go",0,"lose","Avoid","lose",156,"2",13
"647","EMPTY0216",5,6,7,8,5,1992,596,722,-1,"press",1,"NGL","noGo",0,"lose","Avoid","lose",159,"2",17
"648","EMPTY0216",5,6,7,8,5,2524,874,0,-1,"no_press",0,"NGL","noGo",1,"lose","Avoid","lose",160,"2",18
"649","EMPTY0216",8,6,7,8,5,1330,875,600,1,"press",1,"NGW","noGo",0,"win","Win","win",162,"2",16
"650","EMPTY0216",6,6,7,8,5,2650,905,513,1,"press",1,"GW","Go",1,"win","Win","win",165,"2",15
"651","EMPTY0216",6,6,7,8,5,1942,995,506,1,"press",1,"GW","Go",1,"win","Win","win",166,"2",16
"652","EMPTY0216",8,6,7,8,5,2836,932,914,1,"press",1,"NGW","noGo",0,"win","Win","win",167,"2",18
"653","EMPTY0216",8,6,7,8,5,1753,632,0,1,"no_press",0,"NGW","noGo",1,"win","Win","win",168,"2",19
"654","EMPTY0216",8,6,7,8,5,1505,811,820,1,"press",1,"NGW","noGo",0,"win","Win","win",169,"2",20
"655","EMPTY0216",8,6,7,8,5,1423,597,0,1,"no_press",0,"NGW","noGo",1,"win","Win","win",170,"2",21
"656","EMPTY0216",7,6,7,8,5,3099,939,506,-1,"press",1,"GAL","Go",1,"lose","Avoid","lose",174,"2",17
"657","EMPTY0216",6,6,7,8,5,2018,871,588,1,"press",1,"GW","Go",1,"win","Win","win",176,"2",17
"658","EMPTY0216",7,6,7,8,5,1344,827,707,-1,"press",1,"GAL","Go",1,"lose","Avoid","lose",177,"2",18
"659","EMPTY0216",6,6,7,8,5,1848,818,842,1,"press",1,"GW","Go",1,"win","Win","win",181,"2",19
"660","EMPTY0216",6,6,7,8,5,1702,545,768,1,"press",1,"GW","Go",1,"win","Win","win",182,"2",20
"661","EMPTY0216",6,6,7,8,5,1204,947,746,1,"press",1,"GW","Go",1,"win","Win","win",183,"2",21
"662","EMPTY0216",5,6,7,8,5,2336,533,385,-1,"press",1,"NGL","noGo",0,"lose","Avoid","lose",185,"2",23
"663","EMPTY0216",7,6,7,8,5,2315,784,1522,-1,"press",1,"GAL","Go",1,"lose","Avoid","lose",187,"2",20
"664","EMPTY0216",7,6,7,8,5,2518,859,0,-1,"no_press",0,"GAL","Go",0,"lose","Avoid","lose",189,"2",21
"665","EMPTY0216",6,6,7,8,5,2125,672,751,1,"press",1,"GW","Go",1,"win","Win","win",193,"2",23
"666","EMPTY0216",6,6,7,8,5,2700,774,1060,1,"press",1,"GW","Go",1,"win","Win","win",198,"2",24
"667","EMPTY0216",6,6,7,8,5,2237,968,614,1,"press",1,"GW","Go",1,"win","Win","win",199,"2",25
"668","EMPTY0216",9,12,11,10,9,2298,628,1194,-1,"press",1,"NGL","noGo",0,"lose","Avoid","lose",201,"3",1
"669","EMPTY0216",12,12,11,10,9,2000,632,628,1,"press",1,"GW","Go",1,"win","Win","win",208,"3",1
"670","EMPTY0216",11,12,11,10,9,1509,872,781,-1,"press",1,"GAL","Go",1,"lose","Avoid","lose",209,"3",3
"671","EMPTY0216",12,12,11,10,9,2169,828,664,1,"press",1,"GW","Go",1,"win","Win","win",210,"3",2
"672","EMPTY0216",11,12,11,10,9,1630,988,478,-1,"press",1,"GAL","Go",1,"lose","Avoid","lose",213,"3",4
"673","EMPTY0216",11,12,11,10,9,1922,545,0,-1,"no_press",0,"GAL","Go",0,"lose","Avoid","lose",219,"3",6
"674","EMPTY0216",12,12,11,10,9,1954,634,608,1,"press",1,"GW","Go",1,"win","Win","win",221,"3",4
"675","EMPTY0216",12,12,11,10,9,1715,504,706,1,"press",1,"GW","Go",1,"win","Win","win",224,"3",6
"676","EMPTY0216",11,12,11,10,9,1787,943,614,-1,"press",1,"GAL","Go",1,"lose","Avoid","lose",229,"3",8
"677","EMPTY0216",12,12,11,10,9,1189,949,877,1,"press",1,"GW","Go",1,"win","Win","win",230,"3",7
"678","EMPTY0216",11,12,11,10,9,1990,961,0,-1,"no_press",0,"GAL","Go",0,"lose","Avoid","lose",231,"3",9
"679","EMPTY0216",10,12,11,10,9,2478,558,626,1,"press",1,"NGW","noGo",0,"win","Win","win",232,"3",9
"680","EMPTY0216",12,12,11,10,9,2664,852,540,1,"press",1,"GW","Go",1,"win","Win","win",233,"3",8
"681","EMPTY0216",12,12,11,10,9,1655,734,545,1,"press",1,"GW","Go",1,"win","Win","win",235,"3",10
"682","EMPTY0216",9,12,11,10,9,2540,980,0,-1,"no_press",0,"NGL","noGo",1,"lose","Avoid","lose",237,"3",9
"683","EMPTY0216",12,12,11,10,9,2038,941,1444,1,"press",1,"GW","Go",1,"win","Win","win",240,"3",11
"684","EMPTY0216",12,12,11,10,9,2745,815,744,1,"press",1,"GW","Go",1,"win","Win","win",241,"3",12
"685","EMPTY0216",12,12,11,10,9,1678,743,936,1,"press",1,"GW","Go",1,"win","Win","win",242,"3",13
"686","EMPTY0216",11,12,11,10,9,2166,604,0,-1,"no_press",0,"GAL","Go",0,"lose","Avoid","lose",244,"3",10
"687","EMPTY0216",10,12,11,10,9,2272,776,0,1,"no_press",0,"NGW","noGo",1,"win","Win","win",246,"3",11
"688","EMPTY0216",9,12,11,10,9,1444,977,0,-1,"no_press",0,"NGL","noGo",1,"lose","Avoid","lose",247,"3",13
"689","EMPTY0216",12,12,11,10,9,2209,654,524,1,"press",1,"GW","Go",1,"win","Win","win",248,"3",14
"690","EMPTY0216",9,12,11,10,9,1772,768,0,-1,"no_press",0,"NGL","noGo",1,"lose","Avoid","lose",251,"3",14
"691","EMPTY0216",9,12,11,10,9,2855,637,509,-1,"press",1,"NGL","noGo",0,"lose","Avoid","lose",252,"3",15
"692","EMPTY0216",12,12,11,10,9,3344,766,1349,1,"press",1,"GW","Go",1,"win","Win","win",253,"3",15
"693","EMPTY0216",12,12,11,10,9,1562,574,579,1,"press",1,"GW","Go",1,"win","Win","win",255,"3",16
"694","EMPTY0216",11,12,11,10,9,1869,613,0,-1,"no_press",0,"GAL","Go",0,"lose","Avoid","lose",256,"3",13
"695","EMPTY0216",11,12,11,10,9,1889,999,0,-1,"no_press",0,"GAL","Go",0,"lose","Avoid","lose",258,"3",14
"696","EMPTY0216",11,12,11,10,9,1608,775,0,-1,"no_press",0,"GAL","Go",0,"lose","Avoid","lose",261,"3",15
"697","EMPTY0216",10,12,11,10,9,1206,796,0,1,"no_press",0,"NGW","noGo",1,"win","Win","win",263,"3",15
"698","EMPTY0216",10,12,11,10,9,2103,505,1292,1,"press",1,"NGW","noGo",0,"win","Win","win",265,"3",16
"699","EMPTY0216",10,12,11,10,9,2303,579,0,1,"no_press",0,"NGW","noGo",1,"win","Win","win",266,"3",17
"700","EMPTY0216",10,12,11,10,9,1709,586,0,1,"no_press",0,"NGW","noGo",1,"win","Win","win",267,"3",18
"701","EMPTY0216",12,12,11,10,9,2601,975,701,1,"press",1,"GW","Go",1,"win","Win","win",268,"3",17
"702","EMPTY0216",11,12,11,10,9,2253,509,606,-1,"press",1,"GAL","Go",1,"lose","Avoid","lose",269,"3",17
"703","EMPTY0216",11,12,11,10,9,1483,808,500,-1,"press",1,"GAL","Go",1,"lose","Avoid","lose",271,"3",18
"704","EMPTY0216",12,12,11,10,9,1485,736,538,1,"press",1,"GW","Go",1,"win","Win","win",272,"3",18
"705","EMPTY0216",12,12,11,10,9,2004,906,663,1,"press",1,"GW","Go",1,"win","Win","win",276,"3",19
"706","EMPTY0216",9,12,11,10,9,2503,707,539,-1,"press",1,"NGL","noGo",0,"lose","Avoid","lose",277,"3",19
"707","EMPTY0216",11,12,11,10,9,1883,596,0,-1,"no_press",0,"GAL","Go",0,"lose","Avoid","lose",278,"3",20
"708","EMPTY0216",9,12,11,10,9,1931,576,325,-1,"press",1,"NGL","noGo",0,"lose","Avoid","lose",284,"3",21
"709","EMPTY0216",9,12,11,10,9,1249,510,1146,-1,"press",1,"NGL","noGo",0,"lose","Avoid","lose",286,"3",22
"710","EMPTY0216",10,12,11,10,9,1403,742,684,1,"press",1,"NGW","noGo",0,"win","Win","win",287,"3",21
"711","EMPTY0216",12,12,11,10,9,2031,705,631,1,"press",1,"GW","Go",1,"win","Win","win",291,"3",22
"712","EMPTY0216",12,12,11,10,9,2493,664,530,1,"press",1,"GW","Go",1,"win","Win","win",292,"3",23
"713","EMPTY0216",11,12,11,10,9,1861,811,0,-1,"no_press",0,"GAL","Go",0,"lose","Avoid","lose",293,"3",24
"714","EMPTY0216",9,12,11,10,9,2547,802,0,-1,"no_press",0,"NGL","noGo",1,"lose","Avoid","lose",295,"3",25
"715","EMPTY0216",11,12,11,10,9,2481,718,0,-1,"no_press",0,"GAL","Go",0,"lose","Avoid","lose",296,"3",25
"716","EMPTY0216",12,12,11,10,9,2513,779,1373,1,"press",1,"GW","Go",1,"win","Win","win",297,"3",24
"717","EMPTY0216",12,12,11,10,9,1547,806,535,1,"press",1,"GW","Go",1,"win","Win","win",299,"3",25
"718","EMPTY0216",13,14,13,16,15,1465,882,0,-1,"no_press",0,"GAL","Go",0,"lose","Avoid","lose",301,"4",1
"719","EMPTY0216",16,14,13,16,15,2184,507,0,1,"no_press",0,"NGW","noGo",1,"win","Win","win",302,"4",1
"720","EMPTY0216",13,14,13,16,15,1457,652,0,-1,"no_press",0,"GAL","Go",0,"lose","Avoid","lose",304,"4",2
"721","EMPTY0216",13,14,13,16,15,1559,971,0,-1,"no_press",0,"GAL","Go",0,"lose","Avoid","lose",305,"4",3
"722","EMPTY0216",16,14,13,16,15,1000,672,402,1,"press",1,"NGW","noGo",0,"win","Win","win",306,"4",3
"723","EMPTY0216",16,14,13,16,15,2131,766,0,1,"no_press",0,"NGW","noGo",1,"win","Win","win",307,"4",4
"724","EMPTY0216",16,14,13,16,15,1402,535,0,1,"no_press",0,"NGW","noGo",1,"win","Win","win",310,"4",6
"725","EMPTY0216",14,14,13,16,15,3876,916,1174,1,"press",1,"GW","Go",1,"win","Win","win",311,"4",1
"726","EMPTY0216",13,14,13,16,15,1963,665,657,-1,"press",1,"GAL","Go",1,"lose","Avoid","lose",312,"4",4
"727","EMPTY0216",15,14,13,16,15,2448,772,473,-1,"press",1,"NGL","noGo",0,"lose","Avoid","lose",313,"4",2
"728","EMPTY0216",14,14,13,16,15,2609,691,491,1,"press",1,"GW","Go",1,"win","Win","win",314,"4",2
"729","EMPTY0216",15,14,13,16,15,2045,530,589,-1,"press",1,"NGL","noGo",0,"lose","Avoid","lose",316,"4",4
"730","EMPTY0216",14,14,13,16,15,1578,891,466,1,"press",1,"GW","Go",1,"win","Win","win",317,"4",3
"731","EMPTY0216",14,14,13,16,15,2131,698,636,1,"press",1,"GW","Go",1,"win","Win","win",318,"4",4
"732","EMPTY0216",15,14,13,16,15,2761,716,1362,-1,"press",1,"NGL","noGo",0,"lose","Avoid","lose",320,"4",6
"733","EMPTY0216",16,14,13,16,15,2719,699,659,1,"press",1,"NGW","noGo",0,"win","Win","win",321,"4",7
"734","EMPTY0216",15,14,13,16,15,2036,703,740,-1,"press",1,"NGL","noGo",0,"lose","Avoid","lose",322,"4",7
"735","EMPTY0216",13,14,13,16,15,1182,513,0,-1,"no_press",0,"GAL","Go",0,"lose","Avoid","lose",323,"4",5
"736","EMPTY0216",15,14,13,16,15,1509,605,575,-1,"press",1,"NGL","noGo",0,"lose","Avoid","lose",324,"4",8
"737","EMPTY0216",15,14,13,16,15,1615,655,497,-1,"press",1,"NGL","noGo",0,"lose","Avoid","lose",325,"4",9
"738","EMPTY0216",16,14,13,16,15,2228,707,0,1,"no_press",0,"NGW","noGo",1,"win","Win","win",326,"4",8
"739","EMPTY0216",15,14,13,16,15,1462,932,657,-1,"press",1,"NGL","noGo",0,"lose","Avoid","lose",327,"4",10
"740","EMPTY0216",15,14,13,16,15,1634,837,667,-1,"press",1,"NGL","noGo",0,"lose","Avoid","lose",328,"4",11
"741","EMPTY0216",14,14,13,16,15,1845,740,346,1,"press",1,"GW","Go",1,"win","Win","win",331,"4",5
"742","EMPTY0216",14,14,13,16,15,2104,573,407,1,"press",1,"GW","Go",1,"win","Win","win",333,"4",7
"743","EMPTY0216",13,14,13,16,15,2226,680,0,-1,"no_press",0,"GAL","Go",0,"lose","Avoid","lose",334,"4",6
"744","EMPTY0216",14,14,13,16,15,1826,751,422,1,"press",1,"GW","Go",1,"win","Win","win",336,"4",8
"745","EMPTY0216",14,14,13,16,15,3385,771,481,1,"press",1,"GW","Go",1,"win","Win","win",338,"4",9
"746","EMPTY0216",14,14,13,16,15,1729,737,536,1,"press",1,"GW","Go",1,"win","Win","win",341,"4",11
"747","EMPTY0216",16,14,13,16,15,1479,876,808,1,"press",1,"NGW","noGo",0,"win","Win","win",342,"4",12
"748","EMPTY0216",14,14,13,16,15,1822,969,558,1,"press",1,"GW","Go",1,"win","Win","win",346,"4",12
"749","EMPTY0216",13,14,13,16,15,1544,889,540,-1,"press",1,"GAL","Go",1,"lose","Avoid","lose",348,"4",11
"750","EMPTY0216",14,14,13,16,15,1788,544,997,1,"press",1,"GW","Go",1,"win","Win","win",350,"4",13
"751","EMPTY0216",14,14,13,16,15,1407,775,653,1,"press",1,"GW","Go",1,"win","Win","win",352,"4",14
"752","EMPTY0216",14,14,13,16,15,3029,842,486,1,"press",1,"GW","Go",1,"win","Win","win",353,"4",15
"753","EMPTY0216",15,14,13,16,15,2080,603,781,-1,"press",1,"NGL","noGo",0,"lose","Avoid","lose",355,"4",15
"754","EMPTY0216",15,14,13,16,15,2097,994,418,-1,"press",1,"NGL","noGo",0,"lose","Avoid","lose",356,"4",16
"755","EMPTY0216",14,14,13,16,15,3029,609,0,1,"no_press",0,"GW","Go",0,"win","Win","win",359,"4",16
"756","EMPTY0216",16,14,13,16,15,2227,726,0,1,"no_press",0,"NGW","noGo",1,"win","Win","win",360,"4",14
"757","EMPTY0216",16,14,13,16,15,1249,797,0,1,"no_press",0,"NGW","noGo",1,"win","Win","win",362,"4",15
"758","EMPTY0216",16,14,13,16,15,1000,905,0,1,"no_press",0,"NGW","noGo",1,"win","Win","win",363,"4",16
"759","EMPTY0216",15,14,13,16,15,2382,786,1152,-1,"press",1,"NGL","noGo",0,"lose","Avoid","lose",364,"4",17
"760","EMPTY0216",13,14,13,16,15,1967,908,502,-1,"press",1,"GAL","Go",1,"lose","Avoid","lose",368,"4",16
"761","EMPTY0216",15,14,13,16,15,2367,609,599,-1,"press",1,"NGL","noGo",0,"lose","Avoid","lose",369,"4",20
"762","EMPTY0216",15,14,13,16,15,3128,699,754,-1,"press",1,"NGL","noGo",0,"lose","Avoid","lose",371,"4",21
"763","EMPTY0216",14,14,13,16,15,1855,780,453,1,"press",1,"GW","Go",1,"win","Win","win",373,"4",18
"764","EMPTY0216",14,14,13,16,15,2107,747,565,1,"press",1,"GW","Go",1,"win","Win","win",376,"4",19
"765","EMPTY0216",16,14,13,16,15,2176,646,0,1,"no_press",0,"NGW","noGo",1,"win","Win","win",377,"4",19
"766","EMPTY0216",14,14,13,16,15,1456,594,689,1,"press",1,"GW","Go",1,"win","Win","win",382,"4",20
"767","EMPTY0216",13,14,13,16,15,1764,623,0,-1,"no_press",0,"GAL","Go",0,"lose","Avoid","lose",383,"4",21
"768","EMPTY0216",14,14,13,16,15,2828,541,757,1,"press",1,"GW","Go",1,"win","Win","win",388,"4",22
"769","EMPTY0216",16,14,13,16,15,1742,841,782,1,"press",1,"NGW","noGo",0,"win","Win","win",389,"4",21
"770","EMPTY0216",14,14,13,16,15,1841,661,1446,1,"press",1,"GW","Go",1,"win","Win","win",393,"4",23
"771","EMPTY0216",14,14,13,16,15,2315,561,435,1,"press",1,"GW","Go",1,"win","Win","win",396,"4",24
"772","EMPTY0216",14,14,13,16,15,2063,950,657,1,"press",1,"GW","Go",1,"win","Win","win",398,"4",25
"773","KNGN0217",3,2,3,4,1,2593,868,0,-1,"no_press",0,"GAL","Go",0,"lose","Avoid","lose",1,"1",1
"774","KNGN0217",4,2,3,4,1,1874,996,0,1,"no_press",0,"NGW","noGo",1,"win","Win","win",2,"1",1
"775","KNGN0217",1,2,3,4,1,2027,957,0,-1,"no_press",0,"NGL","noGo",1,"lose","Avoid","lose",3,"1",1
"776","KNGN0217",1,2,3,4,1,1952,863,973,-1,"press",1,"NGL","noGo",0,"lose","Avoid","lose",4,"1",2
"777","KNGN0217",2,2,3,4,1,2374,824,590,1,"press",1,"GW","Go",1,"win","Win","win",7,"1",1
"778","KNGN0217",2,2,3,4,1,1818,887,657,1,"press",1,"GW","Go",1,"win","Win","win",8,"1",2
"779","KNGN0217",4,2,3,4,1,2606,578,634,1,"press",1,"NGW","noGo",0,"win","Win","win",12,"1",3
"780","KNGN0217",2,2,3,4,1,1740,614,474,1,"press",1,"GW","Go",1,"win","Win","win",15,"1",3
"781","KNGN0217",2,2,3,4,1,1987,767,499,1,"press",1,"GW","Go",1,"win","Win","win",17,"1",4
"782","KNGN0217",3,2,3,4,1,1200,771,0,-1,"no_press",0,"GAL","Go",0,"lose","Avoid","lose",18,"1",5
"783","KNGN0217",3,2,3,4,1,1837,576,0,-1,"no_press",0,"GAL","Go",0,"lose","Avoid","lose",19,"1",6
"784","KNGN0217",3,2,3,4,1,1687,575,0,-1,"no_press",0,"GAL","Go",0,"lose","Avoid","lose",22,"1",8
"785","KNGN0217",4,2,3,4,1,2705,919,624,1,"press",1,"NGW","noGo",0,"win","Win","win",24,"1",5
"786","KNGN0217",2,2,3,4,1,2972,980,535,1,"press",1,"GW","Go",1,"win","Win","win",28,"1",6
"787","KNGN0217",2,2,3,4,1,1843,793,721,1,"press",1,"GW","Go",1,"win","Win","win",33,"1",7
"788","KNGN0217",3,2,3,4,1,2042,574,0,-1,"no_press",0,"GAL","Go",0,"lose","Avoid","lose",36,"1",9
"789","KNGN0217",2,2,3,4,1,2815,966,662,1,"press",1,"GW","Go",1,"win","Win","win",38,"1",9
"790","KNGN0217",2,2,3,4,1,2385,705,665,1,"press",1,"GW","Go",1,"win","Win","win",39,"1",10
"791","KNGN0217",3,2,3,4,1,1715,739,0,-1,"no_press",0,"GAL","Go",0,"lose","Avoid","lose",40,"1",10
"792","KNGN0217",2,2,3,4,1,2010,712,818,1,"press",1,"GW","Go",1,"win","Win","win",41,"1",11
"793","KNGN0217",1,2,3,4,1,2762,929,0,-1,"no_press",0,"NGL","noGo",1,"lose","Avoid","lose",44,"1",13
"794","KNGN0217",2,2,3,4,1,1252,992,790,1,"press",1,"GW","Go",1,"win","Win","win",45,"1",12
"795","KNGN0217",3,2,3,4,1,1590,771,0,-1,"no_press",0,"GAL","Go",0,"lose","Avoid","lose",46,"1",12
"796","KNGN0217",2,2,3,4,1,2433,679,802,1,"press",1,"GW","Go",1,"win","Win","win",47,"1",13
"797","KNGN0217",3,2,3,4,1,2029,904,0,-1,"no_press",0,"GAL","Go",0,"lose","Avoid","lose",49,"1",13
"798","KNGN0217",2,2,3,4,1,2420,655,425,1,"press",1,"GW","Go",1,"win","Win","win",53,"1",14
"799","KNGN0217",2,2,3,4,1,2248,886,480,1,"press",1,"GW","Go",1,"win","Win","win",54,"1",15
"800","KNGN0217",3,2,3,4,1,1991,789,0,-1,"no_press",0,"GAL","Go",0,"lose","Avoid","lose",59,"1",16
"801","KNGN0217",2,2,3,4,1,1856,735,702,1,"press",1,"GW","Go",1,"win","Win","win",61,"1",16
"802","KNGN0217",1,2,3,4,1,1923,719,0,-1,"no_press",0,"NGL","noGo",1,"lose","Avoid","lose",64,"1",18
"803","KNGN0217",2,2,3,4,1,2033,689,693,1,"press",1,"GW","Go",1,"win","Win","win",67,"1",18
"804","KNGN0217",3,2,3,4,1,3158,600,0,-1,"no_press",0,"GAL","Go",0,"lose","Avoid","lose",68,"1",17
"805","KNGN0217",4,2,3,4,1,2547,695,0,1,"no_press",0,"NGW","noGo",1,"win","Win","win",69,"1",15
"806","KNGN0217",3,2,3,4,1,2927,749,0,-1,"no_press",0,"GAL","Go",0,"lose","Avoid","lose",70,"1",18
"807","KNGN0217",1,2,3,4,1,1809,821,0,-1,"no_press",0,"NGL","noGo",1,"lose","Avoid","lose",71,"1",20
"808","KNGN0217",2,2,3,4,1,2373,636,741,1,"press",1,"GW","Go",1,"win","Win","win",72,"1",19
"809","KNGN0217",4,2,3,4,1,1729,851,500,1,"press",1,"NGW","noGo",0,"win","Win","win",77,"1",19
"810","KNGN0217",1,2,3,4,1,2602,570,413,-1,"press",1,"NGL","noGo",0,"lose","Avoid","lose",82,"1",22
"811","KNGN0217",1,2,3,4,1,1624,863,0,-1,"no_press",0,"NGL","noGo",1,"lose","Avoid","lose",83,"1",23
"812","KNGN0217",3,2,3,4,1,1773,643,0,-1,"no_press",0,"GAL","Go",0,"lose","Avoid","lose",85,"1",19
"813","KNGN0217",3,2,3,4,1,1571,669,0,-1,"no_press",0,"GAL","Go",0,"lose","Avoid","lose",86,"1",20
"814","KNGN0217",3,2,3,4,1,1452,803,0,-1,"no_press",0,"GAL","Go",0,"lose","Avoid","lose",89,"1",22
"815","KNGN0217",4,2,3,4,1,1701,754,604,1,"press",1,"NGW","noGo",0,"win","Win","win",90,"1",24
"816","KNGN0217",3,2,3,4,1,1492,843,0,-1,"no_press",0,"GAL","Go",0,"lose","Avoid","lose",91,"1",23
"817","KNGN0217",3,2,3,4,1,1708,589,0,-1,"no_press",0,"GAL","Go",0,"lose","Avoid","lose",92,"1",24
"818","KNGN0217",4,2,3,4,1,1687,605,604,1,"press",1,"NGW","noGo",0,"win","Win","win",93,"1",25
"819","KNGN0217",3,2,3,4,1,1738,920,0,-1,"no_press",0,"GAL","Go",0,"lose","Avoid","lose",94,"1",25
"820","KNGN0217",2,2,3,4,1,1553,793,578,1,"press",1,"GW","Go",1,"win","Win","win",95,"1",21
"821","KNGN0217",2,2,3,4,1,1375,821,399,1,"press",1,"GW","Go",1,"win","Win","win",96,"1",22
"822","KNGN0217",2,2,3,4,1,1352,902,318,1,"press",1,"GW","Go",1,"win","Win","win",97,"1",23
"823","KNGN0217",2,2,3,4,1,2643,610,333,1,"press",1,"GW","Go",1,"win","Win","win",100,"1",25
"824","KNGN0217",7,6,5,8,7,1237,815,980,-1,"press",1,"NGL","noGo",0,"lose","Avoid","lose",109,"2",5
"825","KNGN0217",5,6,5,8,7,2510,702,0,-1,"no_press",0,"GAL","Go",0,"lose","Avoid","lose",110,"2",1
"826","KNGN0217",5,6,5,8,7,2660,817,0,-1,"no_press",0,"GAL","Go",0,"lose","Avoid","lose",112,"2",2
"827","KNGN0217",5,6,5,8,7,2473,685,0,-1,"no_press",0,"GAL","Go",0,"lose","Avoid","lose",114,"2",3
"828","KNGN0217",5,6,5,8,7,1361,959,0,-1,"no_press",0,"GAL","Go",0,"lose","Avoid","lose",118,"2",5
"829","KNGN0217",8,6,5,8,7,1623,616,1149,1,"press",1,"NGW","noGo",0,"win","Win","win",119,"2",4
"830","KNGN0217",8,6,5,8,7,2285,778,0,1,"no_press",0,"NGW","noGo",1,"win","Win","win",122,"2",5
"831","KNGN0217",7,6,5,8,7,2430,887,0,-1,"no_press",0,"NGL","noGo",1,"lose","Avoid","lose",124,"2",9
"832","KNGN0217",5,6,5,8,7,1368,862,0,-1,"no_press",0,"GAL","Go",0,"lose","Avoid","lose",125,"2",6
"833","KNGN0217",5,6,5,8,7,2389,608,0,-1,"no_press",0,"GAL","Go",0,"lose","Avoid","lose",128,"2",7
"834","KNGN0217",8,6,5,8,7,1825,746,698,1,"press",1,"NGW","noGo",0,"win","Win","win",133,"2",8
"835","KNGN0217",5,6,5,8,7,1216,700,0,-1,"no_press",0,"GAL","Go",0,"lose","Avoid","lose",135,"2",9
"836","KNGN0217",7,6,5,8,7,1570,736,0,-1,"no_press",0,"NGL","noGo",1,"lose","Avoid","lose",136,"2",12
"837","KNGN0217",5,6,5,8,7,2471,886,0,-1,"no_press",0,"GAL","Go",0,"lose","Avoid","lose",137,"2",10
"838","KNGN0217",7,6,5,8,7,2192,740,0,-1,"no_press",0,"NGL","noGo",1,"lose","Avoid","lose",138,"2",13
"839","KNGN0217",5,6,5,8,7,3250,956,0,-1,"no_press",0,"GAL","Go",0,"lose","Avoid","lose",139,"2",11
"840","KNGN0217",6,6,5,8,7,2751,785,0,1,"no_press",0,"GW","Go",0,"win","Win","win",140,"2",8
"841","KNGN0217",5,6,5,8,7,2580,928,0,-1,"no_press",0,"GAL","Go",0,"lose","Avoid","lose",141,"2",12
"842","KNGN0217",6,6,5,8,7,2220,923,445,1,"press",1,"GW","Go",1,"win","Win","win",142,"2",9
"843","KNGN0217",7,6,5,8,7,2950,628,0,-1,"no_press",0,"NGL","noGo",1,"lose","Avoid","lose",145,"2",16
"844","KNGN0217",6,6,5,8,7,1625,833,782,1,"press",1,"GW","Go",1,"win","Win","win",149,"2",10
"845","KNGN0217",6,6,5,8,7,1545,778,696,1,"press",1,"GW","Go",1,"win","Win","win",151,"2",11
"846","KNGN0217",5,6,5,8,7,1963,529,0,-1,"no_press",0,"GAL","Go",0,"lose","Avoid","lose",152,"2",14
"847","KNGN0217",8,6,5,8,7,1252,635,709,1,"press",1,"NGW","noGo",0,"win","Win","win",153,"2",10
"848","KNGN0217",6,6,5,8,7,2072,646,690,1,"press",1,"GW","Go",1,"win","Win","win",158,"2",12
"849","KNGN0217",6,6,5,8,7,1423,765,482,1,"press",1,"GW","Go",1,"win","Win","win",159,"2",13
"850","KNGN0217",7,6,5,8,7,2340,765,0,-1,"no_press",0,"NGL","noGo",1,"lose","Avoid","lose",160,"2",20
"851","KNGN0217",6,6,5,8,7,2948,949,482,1,"press",1,"GW","Go",1,"win","Win","win",165,"2",14
"852","KNGN0217",6,6,5,8,7,2949,989,777,1,"press",1,"GW","Go",1,"win","Win","win",166,"2",15
"853","KNGN0217",6,6,5,8,7,2153,692,656,1,"press",1,"GW","Go",1,"win","Win","win",167,"2",16
"854","KNGN0217",5,6,5,8,7,2173,849,0,-1,"no_press",0,"GAL","Go",0,"lose","Avoid","lose",168,"2",17
"855","KNGN0217",5,6,5,8,7,1400,664,0,-1,"no_press",0,"GAL","Go",0,"lose","Avoid","lose",170,"2",18
"856","KNGN0217",5,6,5,8,7,1987,656,0,-1,"no_press",0,"GAL","Go",0,"lose","Avoid","lose",172,"2",19
"857","KNGN0217",5,6,5,8,7,1294,856,0,-1,"no_press",0,"GAL","Go",0,"lose","Avoid","lose",173,"2",20
"858","KNGN0217",8,6,5,8,7,2214,537,559,1,"press",1,"NGW","noGo",0,"win","Win","win",174,"2",14
"859","KNGN0217",6,6,5,8,7,2676,754,514,1,"press",1,"GW","Go",1,"win","Win","win",176,"2",17
"860","KNGN0217",8,6,5,8,7,2371,507,496,1,"press",1,"NGW","noGo",0,"win","Win","win",183,"2",19
"861","KNGN0217",5,6,5,8,7,1828,815,0,-1,"no_press",0,"GAL","Go",0,"lose","Avoid","lose",184,"2",21
"862","KNGN0217",6,6,5,8,7,1235,960,527,1,"press",1,"GW","Go",1,"win","Win","win",187,"2",20
"863","KNGN0217",5,6,5,8,7,1586,633,0,-1,"no_press",0,"GAL","Go",0,"lose","Avoid","lose",188,"2",22
"864","KNGN0217",5,6,5,8,7,2224,809,0,-1,"no_press",0,"GAL","Go",0,"lose","Avoid","lose",189,"2",23
"865","KNGN0217",5,6,5,8,7,1515,846,0,-1,"no_press",0,"GAL","Go",0,"lose","Avoid","lose",191,"2",24
"866","KNGN0217",6,6,5,8,7,1473,612,477,1,"press",1,"GW","Go",1,"win","Win","win",194,"2",22
"867","KNGN0217",6,6,5,8,7,2507,561,524,1,"press",1,"GW","Go",1,"win","Win","win",195,"2",23
"868","KNGN0217",6,6,5,8,7,2073,720,438,1,"press",1,"GW","Go",1,"win","Win","win",196,"2",24
"869","KNGN0217",5,6,5,8,7,2169,719,0,-1,"no_press",0,"GAL","Go",0,"lose","Avoid","lose",198,"2",25
"870","KNGN0217",9,10,9,12,11,1581,738,0,-1,"no_press",0,"GAL","Go",0,"lose","Avoid","lose",201,"3",1
"871","KNGN0217",11,10,9,12,11,2319,822,980,-1,"press",1,"NGL","noGo",0,"lose","Avoid","lose",202,"3",1
"872","KNGN0217",12,10,9,12,11,1300,956,0,1,"no_press",0,"NGW","noGo",1,"win","Win","win",203,"3",1
"873","KNGN0217",9,10,9,12,11,2815,523,0,-1,"no_press",0,"GAL","Go",0,"lose","Avoid","lose",204,"3",2
"874","KNGN0217",10,10,9,12,11,1522,977,1423,1,"press",1,"GW","Go",1,"win","Win","win",208,"3",1
"875","KNGN0217",12,10,9,12,11,2684,909,1039,1,"press",1,"NGW","noGo",0,"win","Win","win",209,"3",3
"876","KNGN0217",10,10,9,12,11,2195,808,788,1,"press",1,"GW","Go",1,"win","Win","win",210,"3",2
"877","KNGN0217",11,10,9,12,11,2558,817,727,-1,"press",1,"NGL","noGo",0,"lose","Avoid","lose",213,"3",2
"878","KNGN0217",11,10,9,12,11,1613,653,937,-1,"press",1,"NGL","noGo",0,"lose","Avoid","lose",214,"3",3
"879","KNGN0217",11,10,9,12,11,3150,920,740,-1,"press",1,"NGL","noGo",0,"lose","Avoid","lose",217,"3",4
"880","KNGN0217",10,10,9,12,11,2405,749,480,1,"press",1,"GW","Go",1,"win","Win","win",220,"3",5
"881","KNGN0217",10,10,9,12,11,1000,975,572,1,"press",1,"GW","Go",1,"win","Win","win",222,"3",6
"882","KNGN0217",11,10,9,12,11,2317,850,0,-1,"no_press",0,"NGL","noGo",1,"lose","Avoid","lose",225,"3",6
"883","KNGN0217",12,10,9,12,11,2130,614,778,1,"press",1,"NGW","noGo",0,"win","Win","win",229,"3",8
"884","KNGN0217",9,10,9,12,11,1317,547,0,-1,"no_press",0,"GAL","Go",0,"lose","Avoid","lose",231,"3",10
"885","KNGN0217",10,10,9,12,11,2726,532,604,1,"press",1,"GW","Go",1,"win","Win","win",234,"3",7
"886","KNGN0217",10,10,9,12,11,2395,627,617,1,"press",1,"GW","Go",1,"win","Win","win",239,"3",8
"887","KNGN0217",10,10,9,12,11,1588,667,0,1,"no_press",0,"GW","Go",0,"win","Win","win",244,"3",9
"888","KNGN0217",10,10,9,12,11,2358,737,690,1,"press",1,"GW","Go",1,"win","Win","win",248,"3",10
"889","KNGN0217",10,10,9,12,11,1787,950,589,1,"press",1,"GW","Go",1,"win","Win","win",249,"3",11
"890","KNGN0217",11,10,9,12,11,1132,987,0,-1,"no_press",0,"NGL","noGo",1,"lose","Avoid","lose",250,"3",9
"891","KNGN0217",10,10,9,12,11,2603,687,956,1,"press",1,"GW","Go",1,"win","Win","win",251,"3",12
"892","KNGN0217",11,10,9,12,11,2211,540,1361,-1,"press",1,"NGL","noGo",0,"lose","Avoid","lose",253,"3",10
"893","KNGN0217",10,10,9,12,11,1284,671,587,1,"press",1,"GW","Go",1,"win","Win","win",254,"3",13
"894","KNGN0217",9,10,9,12,11,1258,721,810,-1,"press",1,"GAL","Go",1,"lose","Avoid","lose",257,"3",17
"895","KNGN0217",10,10,9,12,11,1827,773,1400,1,"press",1,"GW","Go",1,"win","Win","win",260,"3",15
"896","KNGN0217",12,10,9,12,11,1869,996,561,1,"press",1,"NGW","noGo",0,"win","Win","win",262,"3",17
"897","KNGN0217",9,10,9,12,11,1586,615,378,-1,"press",1,"GAL","Go",1,"lose","Avoid","lose",264,"3",18
"898","KNGN0217",12,10,9,12,11,2744,862,509,1,"press",1,"NGW","noGo",0,"win","Win","win",266,"3",19
"899","KNGN0217",10,10,9,12,11,2151,931,545,1,"press",1,"GW","Go",1,"win","Win","win",267,"3",16
"900","KNGN0217",10,10,9,12,11,1475,505,580,1,"press",1,"GW","Go",1,"win","Win","win",268,"3",17
"901","KNGN0217",10,10,9,12,11,2039,727,832,1,"press",1,"GW","Go",1,"win","Win","win",271,"3",19
"902","KNGN0217",9,10,9,12,11,1757,876,578,-1,"press",1,"GAL","Go",1,"lose","Avoid","lose",272,"3",20
"903","KNGN0217",11,10,9,12,11,1463,843,0,-1,"no_press",0,"NGL","noGo",1,"lose","Avoid","lose",275,"3",17
"904","KNGN0217",12,10,9,12,11,2365,593,924,1,"press",1,"NGW","noGo",0,"win","Win","win",278,"3",22
"905","KNGN0217",11,10,9,12,11,1792,853,0,-1,"no_press",0,"NGL","noGo",1,"lose","Avoid","lose",280,"3",19
"906","KNGN0217",11,10,9,12,11,1897,925,1187,-1,"press",1,"NGL","noGo",0,"lose","Avoid","lose",281,"3",20
"907","KNGN0217",10,10,9,12,11,1995,862,540,1,"press",1,"GW","Go",1,"win","Win","win",283,"3",20
"908","KNGN0217",9,10,9,12,11,2431,599,0,-1,"no_press",0,"GAL","Go",0,"lose","Avoid","lose",288,"3",23
"909","KNGN0217",10,10,9,12,11,2465,979,459,1,"press",1,"GW","Go",1,"win","Win","win",289,"3",21
"910","KNGN0217",10,10,9,12,11,1782,950,465,1,"press",1,"GW","Go",1,"win","Win","win",290,"3",22
"911","KNGN0217",9,10,9,12,11,1314,907,0,-1,"no_press",0,"GAL","Go",0,"lose","Avoid","lose",292,"3",24
"912","KNGN0217",10,10,9,12,11,1196,750,488,1,"press",1,"GW","Go",1,"win","Win","win",297,"3",24
"913","KNGN0217",10,10,9,12,11,2116,687,486,1,"press",1,"GW","Go",1,"win","Win","win",299,"3",25
"914","KNGN0217",13,14,15,16,13,2311,682,511,-1,"press",1,"NGL","noGo",0,"lose","Avoid","lose",302,"4",1
"915","KNGN0217",13,14,15,16,13,2673,990,0,-1,"no_press",0,"NGL","noGo",1,"lose","Avoid","lose",304,"4",3
"916","KNGN0217",14,14,15,16,13,1490,861,640,1,"press",1,"GW","Go",1,"win","Win","win",305,"4",1
"917","KNGN0217",14,14,15,16,13,1582,869,482,1,"press",1,"GW","Go",1,"win","Win","win",307,"4",2
"918","KNGN0217",14,14,15,16,13,3661,547,525,1,"press",1,"GW","Go",1,"win","Win","win",308,"4",3
"919","KNGN0217",14,14,15,16,13,3386,578,473,1,"press",1,"GW","Go",1,"win","Win","win",309,"4",4
"920","KNGN0217",14,14,15,16,13,3554,993,605,1,"press",1,"GW","Go",1,"win","Win","win",311,"4",5
"921","KNGN0217",13,14,15,16,13,1542,733,550,-1,"press",1,"NGL","noGo",0,"lose","Avoid","lose",316,"4",6
"922","KNGN0217",13,14,15,16,13,3200,632,651,-1,"press",1,"NGL","noGo",0,"lose","Avoid","lose",317,"4",7
"923","KNGN0217",14,14,15,16,13,2069,682,597,1,"press",1,"GW","Go",1,"win","Win","win",319,"4",6
"924","KNGN0217",14,14,15,16,13,2888,756,355,1,"press",1,"GW","Go",1,"win","Win","win",320,"4",7
"925","KNGN0217",15,14,15,16,13,1210,683,553,-1,"press",1,"GAL","Go",1,"lose","Avoid","lose",321,"4",4
"926","KNGN0217",14,14,15,16,13,2710,896,511,1,"press",1,"GW","Go",1,"win","Win","win",323,"4",8
"927","KNGN0217",14,14,15,16,13,2441,754,512,1,"press",1,"GW","Go",1,"win","Win","win",327,"4",9
"928","KNGN0217",15,14,15,16,13,2139,550,953,-1,"press",1,"GAL","Go",1,"lose","Avoid","lose",328,"4",6
"929","KNGN0217",13,14,15,16,13,2039,687,0,-1,"no_press",0,"NGL","noGo",1,"lose","Avoid","lose",330,"4",9
"930","KNGN0217",13,14,15,16,13,2320,700,732,-1,"press",1,"NGL","noGo",0,"lose","Avoid","lose",331,"4",10
"931","KNGN0217",16,14,15,16,13,2512,831,565,1,"press",1,"NGW","noGo",0,"win","Win","win",332,"4",7
"932","KNGN0217",13,14,15,16,13,2131,740,825,-1,"press",1,"NGL","noGo",0,"lose","Avoid","lose",334,"4",12
"933","KNGN0217",13,14,15,16,13,1992,797,855,-1,"press",1,"NGL","noGo",0,"lose","Avoid","lose",335,"4",13
"934","KNGN0217",15,14,15,16,13,1505,786,845,-1,"press",1,"GAL","Go",1,"lose","Avoid","lose",336,"4",7
"935","KNGN0217",13,14,15,16,13,1719,595,0,-1,"no_press",0,"NGL","noGo",1,"lose","Avoid","lose",339,"4",14
"936","KNGN0217",14,14,15,16,13,2484,634,863,1,"press",1,"GW","Go",1,"win","Win","win",340,"4",10
"937","KNGN0217",16,14,15,16,13,2885,559,548,1,"press",1,"NGW","noGo",0,"win","Win","win",345,"4",11
"938","KNGN0217",15,14,15,16,13,1809,955,0,-1,"no_press",0,"GAL","Go",0,"lose","Avoid","lose",347,"4",10
"939","KNGN0217",14,14,15,16,13,1741,863,545,1,"press",1,"GW","Go",1,"win","Win","win",348,"4",11
"940","KNGN0217",13,14,15,16,13,1477,913,0,-1,"no_press",0,"NGL","noGo",1,"lose","Avoid","lose",350,"4",17
"941","KNGN0217",14,14,15,16,13,1453,525,447,1,"press",1,"GW","Go",1,"win","Win","win",351,"4",12
"942","KNGN0217",15,14,15,16,13,2154,637,992,-1,"press",1,"GAL","Go",1,"lose","Avoid","lose",352,"4",11
"943","KNGN0217",15,14,15,16,13,1991,814,0,-1,"no_press",0,"GAL","Go",0,"lose","Avoid","lose",356,"4",12
"944","KNGN0217",15,14,15,16,13,2144,850,0,-1,"no_press",0,"GAL","Go",0,"lose","Avoid","lose",358,"4",13
"945","KNGN0217",14,14,15,16,13,2088,634,685,1,"press",1,"GW","Go",1,"win","Win","win",359,"4",13
"946","KNGN0217",14,14,15,16,13,2514,735,559,1,"press",1,"GW","Go",1,"win","Win","win",361,"4",14
"947","KNGN0217",14,14,15,16,13,1439,882,362,1,"press",1,"GW","Go",1,"win","Win","win",363,"4",16
"948","KNGN0217",13,14,15,16,13,2344,933,733,-1,"press",1,"NGL","noGo",0,"lose","Avoid","lose",364,"4",19
"949","KNGN0217",15,14,15,16,13,1651,597,0,-1,"no_press",0,"GAL","Go",0,"lose","Avoid","lose",374,"4",15
"950","KNGN0217",16,14,15,16,13,1000,536,522,1,"press",1,"NGW","noGo",0,"win","Win","win",375,"4",20
"951","KNGN0217",14,14,15,16,13,2685,776,533,1,"press",1,"GW","Go",1,"win","Win","win",379,"4",19
"952","KNGN0217",14,14,15,16,13,3125,540,350,1,"press",1,"GW","Go",1,"win","Win","win",381,"4",21
"953","KNGN0217",16,14,15,16,13,2253,608,689,1,"press",1,"NGW","noGo",0,"win","Win","win",383,"4",22
"954","KNGN0217",14,14,15,16,13,2431,850,539,1,"press",1,"GW","Go",1,"win","Win","win",386,"4",22
"955","KNGN0217",14,14,15,16,13,1987,598,607,1,"press",1,"GW","Go",1,"win","Win","win",388,"4",23
"956","KNGN0217",16,14,15,16,13,2004,595,591,1,"press",1,"NGW","noGo",0,"win","Win","win",389,"4",23
"957","KNGN0217",14,14,15,16,13,1488,861,697,1,"press",1,"GW","Go",1,"win","Win","win",392,"4",24
"958","KNGN0217",15,14,15,16,13,2256,814,576,-1,"press",1,"GAL","Go",1,"lose","Avoid","lose",397,"4",23
"959","KNGN0217",15,14,15,16,13,1419,961,0,-1,"no_press",0,"GAL","Go",0,"lose","Avoid","lose",398,"4",24
"960","KTSE0156",4,4,3,2,1,1482,771,693,1,"press",1,"GW","Go",1,"win","Win","win",3,"1",1
"961","KTSE0156",4,4,3,2,1,2131,863,768,1,"press",1,"GW","Go",1,"win","Win","win",4,"1",2
"962","KTSE0156",1,4,3,2,1,2184,883,568,-1,"press",1,"NGL","noGo",0,"lose","Avoid","lose",5,"1",1
"963","KTSE0156",1,4,3,2,1,2372,780,562,-1,"press",1,"NGL","noGo",0,"lose","Avoid","lose",8,"1",2
"964","KTSE0156",2,4,3,2,1,2538,842,0,1,"no_press",0,"NGW","noGo",1,"win","Win","win",9,"1",4
"965","KTSE0156",4,4,3,2,1,2272,734,652,1,"press",1,"GW","Go",1,"win","Win","win",11,"1",3
"966","KTSE0156",4,4,3,2,1,2252,540,703,1,"press",1,"GW","Go",1,"win","Win","win",13,"1",4
"967","KTSE0156",3,4,3,2,1,1000,673,0,-1,"no_press",0,"GAL","Go",0,"lose","Avoid","lose",15,"1",2
"968","KTSE0156",3,4,3,2,1,1931,740,632,-1,"press",1,"GAL","Go",1,"lose","Avoid","lose",20,"1",5
"969","KTSE0156",2,4,3,2,1,2299,827,0,1,"no_press",0,"NGW","noGo",1,"win","Win","win",22,"1",8
"970","KTSE0156",1,4,3,2,1,1848,848,0,-1,"no_press",0,"NGL","noGo",1,"lose","Avoid","lose",24,"1",7
"971","KTSE0156",1,4,3,2,1,1452,712,399,-1,"press",1,"NGL","noGo",0,"lose","Avoid","lose",25,"1",8
"972","KTSE0156",1,4,3,2,1,1504,747,433,-1,"press",1,"NGL","noGo",0,"lose","Avoid","lose",26,"1",9
"973","KTSE0156",4,4,3,2,1,3016,753,516,1,"press",1,"GW","Go",1,"win","Win","win",29,"1",5
"974","KTSE0156",4,4,3,2,1,1963,571,626,1,"press",1,"GW","Go",1,"win","Win","win",30,"1",6
"975","KTSE0156",1,4,3,2,1,2761,598,1189,-1,"press",1,"NGL","noGo",0,"lose","Avoid","lose",32,"1",12
"976","KTSE0156",4,4,3,2,1,2382,695,504,1,"press",1,"GW","Go",1,"win","Win","win",33,"1",8
"977","KTSE0156",2,4,3,2,1,3385,757,0,1,"no_press",0,"NGW","noGo",1,"win","Win","win",34,"1",9
"978","KTSE0156",4,4,3,2,1,1990,969,678,1,"press",1,"GW","Go",1,"win","Win","win",36,"1",10
"979","KTSE0156",1,4,3,2,1,2873,900,0,-1,"no_press",0,"NGL","noGo",1,"lose","Avoid","lose",37,"1",13
"980","KTSE0156",1,4,3,2,1,1942,823,352,-1,"press",1,"NGL","noGo",0,"lose","Avoid","lose",39,"1",14
"981","KTSE0156",4,4,3,2,1,1330,832,529,1,"press",1,"GW","Go",1,"win","Win","win",40,"1",11
"982","KTSE0156",1,4,3,2,1,2228,837,418,-1,"press",1,"NGL","noGo",0,"lose","Avoid","lose",41,"1",15
"983","KTSE0156",3,4,3,2,1,1591,875,707,-1,"press",1,"GAL","Go",1,"lose","Avoid","lose",42,"1",7
"984","KTSE0156",3,4,3,2,1,2349,564,0,-1,"no_press",0,"GAL","Go",0,"lose","Avoid","lose",45,"1",9
"985","KTSE0156",3,4,3,2,1,2650,767,1331,-1,"press",1,"GAL","Go",1,"lose","Avoid","lose",46,"1",10
"986","KTSE0156",4,4,3,2,1,1634,817,440,1,"press",1,"GW","Go",1,"win","Win","win",53,"1",13
"987","KTSE0156",2,4,3,2,1,1772,635,0,1,"no_press",0,"NGW","noGo",1,"win","Win","win",55,"1",14
"988","KTSE0156",4,4,3,2,1,1824,816,521,1,"press",1,"GW","Go",1,"win","Win","win",56,"1",14
"989","KTSE0156",4,4,3,2,1,3515,565,485,1,"press",1,"GW","Go",1,"win","Win","win",57,"1",15
"990","KTSE0156",3,4,3,2,1,1967,757,0,-1,"no_press",0,"GAL","Go",0,"lose","Avoid","lose",62,"1",12
"991","KTSE0156",4,4,3,2,1,1908,560,897,1,"press",1,"GW","Go",1,"win","Win","win",63,"1",16
"992","KTSE0156",2,4,3,2,1,2283,813,671,1,"press",1,"NGW","noGo",0,"win","Win","win",64,"1",16
"993","KTSE0156",1,4,3,2,1,1368,922,399,-1,"press",1,"NGL","noGo",0,"lose","Avoid","lose",70,"1",21
"994","KTSE0156",2,4,3,2,1,1237,721,541,1,"press",1,"NGW","noGo",0,"win","Win","win",71,"1",20
"995","KTSE0156",4,4,3,2,1,1941,845,493,1,"press",1,"GW","Go",1,"win","Win","win",72,"1",17
"996","KTSE0156",4,4,3,2,1,1771,558,564,1,"press",1,"GW","Go",1,"win","Win","win",74,"1",18
"997","KTSE0156",3,4,3,2,1,1787,846,343,-1,"press",1,"GAL","Go",1,"lose","Avoid","lose",75,"1",15
"998","KTSE0156",4,4,3,2,1,2930,566,513,1,"press",1,"GW","Go",1,"win","Win","win",76,"1",19
"999","KTSE0156",4,4,3,2,1,1000,929,444,1,"press",1,"GW","Go",1,"win","Win","win",81,"1",20
"1000","KTSE0156",4,4,3,2,1,1249,761,352,1,"press",1,"GW","Go",1,"win","Win","win",82,"1",21
"1001","KTSE0156",4,4,3,2,1,2853,568,418,1,"press",1,"GW","Go",1,"win","Win","win",85,"1",22
"1002","KTSE0156",3,4,3,2,1,3876,602,0,-1,"no_press",0,"GAL","Go",0,"lose","Avoid","lose",91,"1",20
"1003","KTSE0156",4,4,3,2,1,2274,760,453,1,"press",1,"GW","Go",1,"win","Win","win",96,"1",24
"1004","KTSE0156",2,4,3,2,1,2014,798,341,1,"press",1,"NGW","noGo",0,"win","Win","win",97,"1",25
