"","ID","stim_ID","GW","GAL","NGW","NGL","jitter1","jitter2","RT","outcomefeed","condition","response","GoResponse","Cue","req_action","correct","trial_number","block","TrialCount","feedback","OutValence","salient"
"1","BNVN0020",4,4,1,2,3,3412,990,0,0,"a.sham","no_press",0,"GW","Go",0,1,"1",1,"neutral","Win",NA
"2","BNVN0020",1,4,1,2,3,1824,777,549,0,"a.sham","press",1,"GAL","Go",1,2,"1",1,"neutral","Avoid",NA
"3","BNVN0020",2,4,1,2,3,1942,696,626,0,"a.sham","press",1,"NGW","noGo",0,3,"1",1,"neutral","Win",NA
"4","BNVN0020",4,4,1,2,3,2253,891,0,0,"a.sham","no_press",0,"GW","Go",0,4,"1",2,"neutral","Win",NA
"5","BNVN0020",1,4,1,2,3,2503,673,615,0,"a.sham","press",1,"GAL","Go",1,5,"1",2,"neutral","Avoid",NA
"6","BNVN0020",1,4,1,2,3,2272,697,559,0,"a.sham","press",1,"GAL","Go",1,6,"1",3,"neutral","Avoid",NA
"7","BNVN0020",1,4,1,2,3,1795,991,512,0,"a.sham","press",1,"GAL","Go",1,7,"1",4,"neutral","Avoid",NA
"8","BNVN0020",1,4,1,2,3,1000,545,601,0,"a.sham","press",1,"GAL","Go",1,8,"1",5,"neutral","Avoid",NA
"9","BNVN0020",1,4,1,2,3,2404,683,0,0,"a.sham","no_press",0,"GAL","Go",0,9,"1",6,"neutral","Avoid",NA
"10","BNVN0020",3,4,1,2,3,1326,561,751,-1,"a.sham","press",1,"NGL","noGo",0,10,"1",1,"lose","Avoid","lose"
"11","BNVN0020",1,4,1,2,3,2538,934,707,0,"a.sham","press",1,"GAL","Go",1,11,"1",7,"neutral","Avoid",NA
"12","BNVN0020",3,4,1,2,3,1690,763,469,-1,"a.sham","press",1,"NGL","noGo",0,12,"1",2,"lose","Avoid","lose"
"13","BNVN0020",3,4,1,2,3,2930,914,681,-1,"a.sham","press",1,"NGL","noGo",0,13,"1",3,"lose","Avoid","lose"
"14","BNVN0020",1,4,1,2,3,2184,602,1103,0,"a.sham","press",1,"GAL","Go",1,14,"1",8,"neutral","Avoid",NA
"15","BNVN0020",2,4,1,2,3,1780,551,1321,0,"a.sham","press",1,"NGW","noGo",0,15,"1",2,"neutral","Win",NA
"16","BNVN0020",3,4,1,2,3,2547,691,0,0,"a.sham","no_press",0,"NGL","noGo",1,16,"1",4,"neutral","Avoid",NA
"17","BNVN0020",3,4,1,2,3,2149,778,0,0,"a.sham","no_press",0,"NGL","noGo",1,17,"1",5,"neutral","Avoid",NA
"18","BNVN0020",1,4,1,2,3,1338,918,0,0,"a.sham","no_press",0,"GAL","Go",0,18,"1",9,"neutral","Avoid",NA
"19","BNVN0020",4,4,1,2,3,2224,608,680,1,"a.sham","press",1,"GW","Go",1,19,"1",3,"win","Win","win"
"20","BNVN0020",1,4,1,2,3,1795,875,681,0,"a.sham","press",1,"GAL","Go",1,20,"1",10,"neutral","Avoid",NA
"21","BNVN0020",2,4,1,2,3,2785,798,0,1,"a.sham","no_press",0,"NGW","noGo",1,21,"1",3,"win","Win","win"
"22","BNVN0020",2,4,1,2,3,2615,600,0,1,"a.sham","no_press",0,"NGW","noGo",1,22,"1",4,"win","Win","win"
"23","BNVN0020",4,4,1,2,3,1249,755,0,0,"a.sham","no_press",0,"GW","Go",0,23,"1",4,"neutral","Win",NA
"24","BNVN0020",1,4,1,2,3,1407,672,1220,0,"a.sham","press",1,"GAL","Go",1,24,"1",11,"neutral","Avoid",NA
"25","BNVN0020",4,4,1,2,3,1598,752,0,0,"a.sham","no_press",0,"GW","Go",0,25,"1",5,"neutral","Win",NA
"26","BNVN0020",2,4,1,2,3,1709,966,0,1,"a.sham","no_press",0,"NGW","noGo",1,26,"1",5,"win","Win","win"
"27","BNVN0020",4,4,1,2,3,2066,743,0,0,"a.sham","no_press",0,"GW","Go",0,27,"1",6,"neutral","Win",NA
"28","BNVN0020",1,4,1,2,3,1166,953,1495,0,"a.sham","press",1,"GAL","Go",1,28,"1",12,"neutral","Avoid",NA
"29","BNVN0020",3,4,1,2,3,1458,862,0,0,"a.sham","no_press",0,"NGL","noGo",1,29,"1",6,"neutral","Avoid",NA
"30","BNVN0020",2,4,1,2,3,2103,956,0,1,"a.sham","no_press",0,"NGW","noGo",1,30,"1",6,"win","Win","win"
"31","BNVN0020",2,4,1,2,3,1608,999,0,1,"a.sham","no_press",0,"NGW","noGo",1,31,"1",7,"win","Win","win"
"32","BNVN0020",4,4,1,2,3,1598,939,0,0,"a.sham","no_press",0,"GW","Go",0,32,"1",7,"neutral","Win",NA
"33","BNVN0020",3,4,1,2,3,1784,641,0,0,"a.sham","no_press",0,"NGL","noGo",1,33,"1",7,"neutral","Avoid",NA
"34","BNVN0020",3,4,1,2,3,1484,895,0,-1,"a.sham","no_press",0,"NGL","noGo",1,34,"1",8,"lose","Avoid","lose"
"35","BNVN0020",2,4,1,2,3,1715,641,0,1,"a.sham","no_press",0,"NGW","noGo",1,35,"1",8,"win","Win","win"
"36","BNVN0020",4,4,1,2,3,2386,868,0,0,"a.sham","no_press",0,"GW","Go",0,36,"1",8,"neutral","Win",NA
"37","BNVN0020",4,4,1,2,3,2288,864,844,0,"a.sham","press",1,"GW","Go",1,37,"1",9,"neutral","Win",NA
"38","BNVN0020",3,4,1,2,3,2663,737,1238,-1,"a.sham","press",1,"NGL","noGo",0,38,"1",9,"lose","Avoid","lose"
"39","BNVN0020",1,4,1,2,3,2822,656,431,0,"a.sham","press",1,"GAL","Go",1,39,"1",13,"neutral","Avoid",NA
"40","BNVN0020",2,4,1,2,3,1889,818,0,1,"a.sham","no_press",0,"NGW","noGo",1,40,"1",9,"win","Win","win"
"41","BNVN0020",2,4,1,2,3,1364,791,0,1,"a.sham","no_press",0,"NGW","noGo",1,41,"1",10,"win","Win","win"
"42","BNVN0020",3,4,1,2,3,2318,546,0,-1,"a.sham","no_press",0,"NGL","noGo",1,42,"1",10,"lose","Avoid","lose"
"43","BNVN0020",3,4,1,2,3,1752,758,657,-1,"a.sham","press",1,"NGL","noGo",0,43,"1",11,"lose","Avoid","lose"
"44","BNVN0020",4,4,1,2,3,2664,887,1052,1,"a.sham","press",1,"GW","Go",1,44,"1",10,"win","Win","win"
"45","BNVN0020",2,4,1,2,3,1779,791,0,1,"a.sham","no_press",0,"NGW","noGo",1,45,"1",11,"win","Win","win"
"46","BNVN0020",1,4,1,2,3,1463,905,0,-1,"a.sham","no_press",0,"GAL","Go",0,46,"1",14,"lose","Avoid","lose"
"47","BNVN0020",2,4,1,2,3,2664,630,0,1,"a.sham","no_press",0,"NGW","noGo",1,47,"1",12,"win","Win","win"
"48","BNVN0020",3,4,1,2,3,1842,645,1055,0,"a.sham","press",1,"NGL","noGo",0,48,"1",12,"neutral","Avoid",NA
"49","BNVN0020",3,4,1,2,3,2349,798,519,-1,"a.sham","press",1,"NGL","noGo",0,49,"1",13,"lose","Avoid","lose"
"50","BNVN0020",2,4,1,2,3,1246,952,0,0,"a.sham","no_press",0,"NGW","noGo",1,50,"1",13,"neutral","Win",NA
"51","BNVN0020",3,4,1,2,3,2131,692,0,0,"a.sham","no_press",0,"NGL","noGo",1,51,"1",14,"neutral","Avoid",NA
"52","BNVN0020",3,4,1,2,3,2008,861,0,0,"a.sham","no_press",0,"NGL","noGo",1,52,"1",15,"neutral","Avoid",NA
"53","BNVN0020",1,4,1,2,3,1511,531,0,-1,"a.sham","no_press",0,"GAL","Go",0,53,"1",15,"lose","Avoid","lose"
"54","BNVN0020",1,4,1,2,3,2266,783,910,-1,"a.sham","press",1,"GAL","Go",1,54,"1",16,"lose","Avoid","lose"
"55","BNVN0020",4,4,1,2,3,1938,538,968,1,"a.sham","press",1,"GW","Go",1,55,"1",11,"win","Win","win"
"56","BNVN0020",3,4,1,2,3,1597,602,0,0,"a.sham","no_press",0,"NGL","noGo",1,56,"1",16,"neutral","Avoid",NA
"57","BNVN0020",4,4,1,2,3,1954,549,1356,1,"a.sham","press",1,"GW","Go",1,57,"1",12,"win","Win","win"
"58","BNVN0020",2,4,1,2,3,1575,891,0,1,"a.sham","no_press",0,"NGW","noGo",1,58,"1",14,"win","Win","win"
"59","BNVN0020",2,4,1,2,3,2650,932,0,1,"a.sham","no_press",0,"NGW","noGo",1,59,"1",15,"win","Win","win"
"60","BNVN0020",4,4,1,2,3,2132,951,895,0,"a.sham","press",1,"GW","Go",1,60,"1",13,"neutral","Win",NA
"61","BNVN0020",3,4,1,2,3,1559,632,0,0,"a.sham","no_press",0,"NGL","noGo",1,61,"1",17,"neutral","Avoid",NA
"62","BNVN0020",2,4,1,2,3,2315,865,0,0,"a.sham","no_press",0,"NGW","noGo",1,62,"1",16,"neutral","Win",NA
"63","BNVN0020",1,4,1,2,3,1861,577,0,-1,"a.sham","no_press",0,"GAL","Go",0,63,"1",17,"lose","Avoid","lose"
"64","BNVN0020",2,4,1,2,3,2116,673,0,1,"a.sham","no_press",0,"NGW","noGo",1,64,"1",17,"win","Win","win"
"65","BNVN0020",1,4,1,2,3,2493,788,468,0,"a.sham","press",1,"GAL","Go",1,65,"1",18,"neutral","Avoid",NA
"66","BNVN0020",4,4,1,2,3,2701,870,783,0,"a.sham","press",1,"GW","Go",1,66,"1",14,"neutral","Win",NA
"67","BNVN0020",3,4,1,2,3,3029,748,0,0,"a.sham","no_press",0,"NGL","noGo",1,67,"1",18,"neutral","Avoid",NA
"68","BNVN0020",4,4,1,2,3,1729,610,724,1,"a.sham","press",1,"GW","Go",1,68,"1",15,"win","Win","win"
"69","BNVN0020",3,4,1,2,3,2029,839,0,0,"a.sham","no_press",0,"NGL","noGo",1,69,"1",19,"neutral","Avoid",NA
"70","BNVN0020",4,4,1,2,3,2262,829,688,0,"a.sham","press",1,"GW","Go",1,70,"1",16,"neutral","Win",NA
"71","BNVN0020",1,4,1,2,3,1992,526,544,0,"a.sham","press",1,"GAL","Go",1,71,"1",19,"neutral","Avoid",NA
"72","BNVN0020",2,4,1,2,3,1434,803,0,0,"a.sham","no_press",0,"NGW","noGo",1,72,"1",18,"neutral","Win",NA
"73","BNVN0020",4,4,1,2,3,1289,790,656,1,"a.sham","press",1,"GW","Go",1,73,"1",17,"win","Win","win"
"74","BNVN0020",1,4,1,2,3,2087,623,734,0,"a.sham","press",1,"GAL","Go",1,74,"1",20,"neutral","Avoid",NA
"75","BNVN0020",2,4,1,2,3,2103,595,0,0,"a.sham","no_press",0,"NGW","noGo",1,75,"1",19,"neutral","Win",NA
"76","BNVN0020",4,4,1,2,3,2121,936,581,1,"a.sham","press",1,"GW","Go",1,76,"1",18,"win","Win","win"
"77","BNVN0020",4,4,1,2,3,1851,777,762,1,"a.sham","press",1,"GW","Go",1,77,"1",19,"win","Win","win"
"78","BNVN0020",2,4,1,2,3,1959,802,479,0,"a.sham","press",1,"NGW","noGo",0,78,"1",20,"neutral","Win",NA
"79","BNVN0020",4,4,1,2,3,3385,823,837,1,"a.sham","press",1,"GW","Go",1,79,"1",20,"win","Win","win"
"80","BNVN0020",3,4,1,2,3,1883,502,0,-1,"a.sham","no_press",0,"NGL","noGo",1,80,"1",20,"lose","Avoid","lose"
"81","BNVN0020",6,6,7,8,5,1465,843,1397,1,"a.sham","press",1,"GW","Go",1,81,"2",1,"win","Win","win"
"82","BNVN0020",5,6,7,8,5,1456,711,812,-1,"a.sham","press",1,"NGL","noGo",0,82,"2",1,"lose","Avoid","lose"
"83","BNVN0020",8,6,7,8,5,2700,519,850,0,"a.sham","press",1,"NGW","noGo",0,83,"2",1,"neutral","Win",NA
"84","BNVN0020",5,6,7,8,5,1505,945,0,0,"a.sham","no_press",0,"NGL","noGo",1,84,"2",2,"neutral","Avoid",NA
"85","BNVN0020",7,6,7,8,5,2252,511,1067,0,"a.sham","press",1,"GAL","Go",1,85,"2",1,"neutral","Avoid",NA
"86","BNVN0020",7,6,7,8,5,1495,528,776,0,"a.sham","press",1,"GAL","Go",1,86,"2",2,"neutral","Avoid",NA
"87","BNVN0020",5,6,7,8,5,2018,879,0,0,"a.sham","no_press",0,"NGL","noGo",1,87,"2",3,"neutral","Avoid",NA
"88","BNVN0020",6,6,7,8,5,1403,831,542,0,"a.sham","press",1,"GW","Go",1,88,"2",2,"neutral","Win",NA
"89","BNVN0020",5,6,7,8,5,2143,942,0,0,"a.sham","no_press",0,"NGL","noGo",1,89,"2",4,"neutral","Avoid",NA
"90","BNVN0020",8,6,7,8,5,1433,553,796,0,"a.sham","press",1,"NGW","noGo",0,90,"2",2,"neutral","Win",NA
"91","BNVN0020",5,6,7,8,5,1963,892,0,0,"a.sham","no_press",0,"NGL","noGo",1,91,"2",5,"neutral","Avoid",NA
"92","BNVN0020",8,6,7,8,5,1890,541,0,1,"a.sham","no_press",0,"NGW","noGo",1,92,"2",3,"win","Win","win"
"93","BNVN0020",6,6,7,8,5,2254,876,1351,1,"a.sham","press",1,"GW","Go",1,93,"2",3,"win","Win","win"
"94","BNVN0020",6,6,7,8,5,2306,927,937,1,"a.sham","press",1,"GW","Go",1,94,"2",4,"win","Win","win"
"95","BNVN0020",5,6,7,8,5,1671,969,0,0,"a.sham","no_press",0,"NGL","noGo",1,95,"2",6,"neutral","Avoid",NA
"96","BNVN0020",6,6,7,8,5,1927,736,465,1,"a.sham","press",1,"GW","Go",1,96,"2",5,"win","Win","win"
"97","BNVN0020",8,6,7,8,5,1966,998,1063,0,"a.sham","press",1,"NGW","noGo",0,97,"2",4,"neutral","Win",NA
"98","BNVN0020",7,6,7,8,5,1936,808,0,-1,"a.sham","no_press",0,"GAL","Go",0,98,"2",3,"lose","Avoid","lose"
"99","BNVN0020",8,6,7,8,5,1723,638,0,1,"a.sham","no_press",0,"NGW","noGo",1,99,"2",5,"win","Win","win"
"100","BNVN0020",8,6,7,8,5,1702,753,0,1,"a.sham","no_press",0,"NGW","noGo",1,100,"2",6,"win","Win","win"
"101","BNVN0020",7,6,7,8,5,1250,984,690,-1,"a.sham","press",1,"GAL","Go",1,101,"2",4,"lose","Avoid","lose"
"102","BNVN0020",7,6,7,8,5,2510,706,0,-1,"a.sham","no_press",0,"GAL","Go",0,102,"2",5,"lose","Avoid","lose"
"103","BNVN0020",6,6,7,8,5,1885,570,711,1,"a.sham","press",1,"GW","Go",1,103,"2",6,"win","Win","win"
"104","BNVN0020",8,6,7,8,5,1845,729,0,0,"a.sham","no_press",0,"NGW","noGo",1,104,"2",7,"neutral","Win",NA
"105","BNVN0020",5,6,7,8,5,1000,713,0,0,"a.sham","no_press",0,"NGL","noGo",1,105,"2",7,"neutral","Avoid",NA
"106","BNVN0020",7,6,7,8,5,1655,934,942,0,"a.sham","press",1,"GAL","Go",1,106,"2",6,"neutral","Avoid",NA
"107","BNVN0020",5,6,7,8,5,1453,818,0,0,"a.sham","no_press",0,"NGL","noGo",1,107,"2",8,"neutral","Avoid",NA
"108","BNVN0020",8,6,7,8,5,3128,629,0,0,"a.sham","no_press",0,"NGW","noGo",1,108,"2",8,"neutral","Win",NA
"109","BNVN0020",5,6,7,8,5,1504,564,0,0,"a.sham","no_press",0,"NGL","noGo",1,109,"2",9,"neutral","Avoid",NA
"110","BNVN0020",6,6,7,8,5,1736,631,690,1,"a.sham","press",1,"GW","Go",1,110,"2",7,"win","Win","win"
"111","BNVN0020",5,6,7,8,5,2964,500,0,0,"a.sham","no_press",0,"NGL","noGo",1,111,"2",10,"neutral","Avoid",NA
"112","BNVN0020",8,6,7,8,5,2318,885,0,1,"a.sham","no_press",0,"NGW","noGo",1,112,"2",9,"win","Win","win"
"113","BNVN0020",5,6,7,8,5,2724,596,0,0,"a.sham","no_press",0,"NGL","noGo",1,113,"2",11,"neutral","Avoid",NA
"114","BNVN0020",5,6,7,8,5,1921,850,0,0,"a.sham","no_press",0,"NGL","noGo",1,114,"2",12,"neutral","Avoid",NA
"115","BNVN0020",5,6,7,8,5,1622,524,1015,-1,"a.sham","press",1,"NGL","noGo",0,115,"2",13,"lose","Avoid","lose"
"116","BNVN0020",8,6,7,8,5,2549,936,0,1,"a.sham","no_press",0,"NGW","noGo",1,116,"2",10,"win","Win","win"
"117","BNVN0020",5,6,7,8,5,1575,977,0,-1,"a.sham","no_press",0,"NGL","noGo",1,117,"2",14,"lose","Avoid","lose"
"118","BNVN0020",7,6,7,8,5,2388,633,1003,0,"a.sham","press",1,"GAL","Go",1,118,"2",7,"neutral","Avoid",NA
"119","BNVN0020",7,6,7,8,5,1552,570,0,0,"a.sham","no_press",0,"GAL","Go",0,119,"2",8,"neutral","Avoid",NA
"120","BNVN0020",6,6,7,8,5,2548,550,699,1,"a.sham","press",1,"GW","Go",1,120,"2",8,"win","Win","win"
"121","BNVN0020",7,6,7,8,5,2299,900,740,0,"a.sham","press",1,"GAL","Go",1,121,"2",9,"neutral","Avoid",NA
"122","BNVN0020",6,6,7,8,5,1932,777,639,0,"a.sham","press",1,"GW","Go",1,122,"2",9,"neutral","Win",NA
"123","BNVN0020",7,6,7,8,5,1000,941,710,0,"a.sham","press",1,"GAL","Go",1,123,"2",10,"neutral","Avoid",NA
"124","BNVN0020",6,6,7,8,5,2745,720,629,1,"a.sham","press",1,"GW","Go",1,124,"2",10,"win","Win","win"
"125","BNVN0020",8,6,7,8,5,2274,923,0,0,"a.sham","no_press",0,"NGW","noGo",1,125,"2",11,"neutral","Win",NA
"126","BNVN0020",7,6,7,8,5,2251,629,0,-1,"a.sham","no_press",0,"GAL","Go",0,126,"2",11,"lose","Avoid","lose"
"127","BNVN0020",7,6,7,8,5,2206,543,691,0,"a.sham","press",1,"GAL","Go",1,127,"2",12,"neutral","Avoid",NA
"128","BNVN0020",8,6,7,8,5,1182,521,683,0,"a.sham","press",1,"NGW","noGo",0,128,"2",12,"neutral","Win",NA
"129","BNVN0020",7,6,7,8,5,2817,605,801,-1,"a.sham","press",1,"GAL","Go",1,129,"2",13,"lose","Avoid","lose"
"130","BNVN0020",8,6,7,8,5,2184,966,0,1,"a.sham","no_press",0,"NGW","noGo",1,130,"2",13,"win","Win","win"
"131","BNVN0020",5,6,7,8,5,2036,701,0,-1,"a.sham","no_press",0,"NGL","noGo",1,131,"2",15,"lose","Avoid","lose"
"132","BNVN0020",6,6,7,8,5,1939,580,700,1,"a.sham","press",1,"GW","Go",1,132,"2",11,"win","Win","win"
"133","BNVN0020",7,6,7,8,5,2218,670,0,-1,"a.sham","no_press",0,"GAL","Go",0,133,"2",14,"lose","Avoid","lose"
"134","BNVN0020",7,6,7,8,5,1678,557,674,0,"a.sham","press",1,"GAL","Go",1,134,"2",15,"neutral","Avoid",NA
"135","BNVN0020",7,6,7,8,5,2907,951,1010,0,"a.sham","press",1,"GAL","Go",1,135,"2",16,"neutral","Avoid",NA
"136","BNVN0020",5,6,7,8,5,2171,651,0,0,"a.sham","no_press",0,"NGL","noGo",1,136,"2",16,"neutral","Avoid",NA
"137","BNVN0020",6,6,7,8,5,1547,952,539,1,"a.sham","press",1,"GW","Go",1,137,"2",12,"win","Win","win"
"138","BNVN0020",7,6,7,8,5,1445,795,0,-1,"a.sham","no_press",0,"GAL","Go",0,138,"2",17,"lose","Avoid","lose"
"139","BNVN0020",5,6,7,8,5,2415,626,0,0,"a.sham","no_press",0,"NGL","noGo",1,139,"2",17,"neutral","Avoid",NA
"140","BNVN0020",8,6,7,8,5,2212,794,0,1,"a.sham","no_press",0,"NGW","noGo",1,140,"2",14,"win","Win","win"
"141","BNVN0020",8,6,7,8,5,2887,937,0,1,"a.sham","no_press",0,"NGW","noGo",1,141,"2",15,"win","Win","win"
"142","BNVN0020",5,6,7,8,5,1281,530,0,0,"a.sham","no_press",0,"NGL","noGo",1,142,"2",18,"neutral","Avoid",NA
"143","BNVN0020",8,6,7,8,5,2074,781,0,1,"a.sham","no_press",0,"NGW","noGo",1,143,"2",16,"win","Win","win"
"144","BNVN0020",6,6,7,8,5,2272,782,722,0,"a.sham","press",1,"GW","Go",1,144,"2",13,"neutral","Win",NA
"145","BNVN0020",7,6,7,8,5,1133,743,728,0,"a.sham","press",1,"GAL","Go",1,145,"2",18,"neutral","Avoid",NA
"146","BNVN0020",6,6,7,8,5,1576,908,766,1,"a.sham","press",1,"GW","Go",1,146,"2",14,"win","Win","win"
"147","BNVN0020",8,6,7,8,5,2467,966,0,1,"a.sham","no_press",0,"NGW","noGo",1,147,"2",17,"win","Win","win"
"148","BNVN0020",8,6,7,8,5,2096,720,0,1,"a.sham","no_press",0,"NGW","noGo",1,148,"2",18,"win","Win","win"
"149","BNVN0020",8,6,7,8,5,1951,602,0,0,"a.sham","no_press",0,"NGW","noGo",1,149,"2",19,"neutral","Win",NA
"150","BNVN0020",8,6,7,8,5,1468,822,0,1,"a.sham","no_press",0,"NGW","noGo",1,150,"2",20,"win","Win","win"
"151","BNVN0020",7,6,7,8,5,1948,675,999,-1,"a.sham","press",1,"GAL","Go",1,151,"2",19,"lose","Avoid","lose"
"152","BNVN0020",6,6,7,8,5,2088,606,804,1,"a.sham","press",1,"GW","Go",1,152,"2",15,"win","Win","win"
"153","BNVN0020",6,6,7,8,5,2528,625,657,1,"a.sham","press",1,"GW","Go",1,153,"2",16,"win","Win","win"
"154","BNVN0020",6,6,7,8,5,1990,770,700,1,"a.sham","press",1,"GW","Go",1,154,"2",17,"win","Win","win"
"155","BNVN0020",6,6,7,8,5,1674,626,926,0,"a.sham","press",1,"GW","Go",1,155,"2",18,"neutral","Win",NA
"156","BNVN0020",6,6,7,8,5,3323,879,822,1,"a.sham","press",1,"GW","Go",1,156,"2",19,"win","Win","win"
"157","BNVN0020",6,6,7,8,5,2380,574,533,1,"a.sham","press",1,"GW","Go",1,157,"2",20,"win","Win","win"
"158","BNVN0020",7,6,7,8,5,1922,770,693,0,"a.sham","press",1,"GAL","Go",1,158,"2",20,"neutral","Avoid",NA
"159","BNVN0020",5,6,7,8,5,2099,880,0,0,"a.sham","no_press",0,"NGL","noGo",1,159,"2",19,"neutral","Avoid",NA
"160","BNVN0020",5,6,7,8,5,1518,818,0,-1,"a.sham","no_press",0,"NGL","noGo",1,160,"2",20,"lose","Avoid","lose"
"161","BNVN0020",10,10,11,12,9,1509,760,1052,1,"a.sham","press",1,"GW","Go",1,161,"3",1,"win","Win","win"
"162","BNVN0020",12,10,11,12,9,2359,719,0,1,"a.sham","no_press",0,"NGW","noGo",1,162,"3",1,"win","Win","win"
"163","BNVN0020",9,10,11,12,9,2478,530,0,0,"a.sham","no_press",0,"NGL","noGo",1,163,"3",1,"neutral","Avoid",NA
"164","BNVN0020",11,10,11,12,9,1703,725,893,-1,"a.sham","press",1,"GAL","Go",1,164,"3",1,"lose","Avoid","lose"
"165","BNVN0020",9,10,11,12,9,2045,958,0,0,"a.sham","no_press",0,"NGL","noGo",1,165,"3",2,"neutral","Avoid",NA
"166","BNVN0020",11,10,11,12,9,1746,671,0,0,"a.sham","no_press",0,"GAL","Go",0,166,"3",2,"neutral","Avoid",NA
"167","BNVN0020",11,10,11,12,9,1187,886,0,-1,"a.sham","no_press",0,"GAL","Go",0,167,"3",3,"lose","Avoid","lose"
"168","BNVN0020",10,10,11,12,9,2152,605,923,1,"a.sham","press",1,"GW","Go",1,168,"3",2,"win","Win","win"
"169","BNVN0020",12,10,11,12,9,1826,585,0,1,"a.sham","no_press",0,"NGW","noGo",1,169,"3",2,"win","Win","win"
"170","BNVN0020",12,10,11,12,9,2481,684,0,1,"a.sham","no_press",0,"NGW","noGo",1,170,"3",3,"win","Win","win"
"171","BNVN0020",9,10,11,12,9,1717,781,0,0,"a.sham","no_press",0,"NGL","noGo",1,171,"3",3,"neutral","Avoid",NA
"172","BNVN0020",9,10,11,12,9,1304,822,0,0,"a.sham","no_press",0,"NGL","noGo",1,172,"3",4,"neutral","Avoid",NA
"173","BNVN0020",12,10,11,12,9,1787,519,0,1,"a.sham","no_press",0,"NGW","noGo",1,173,"3",4,"win","Win","win"
"174","BNVN0020",11,10,11,12,9,2122,730,0,0,"a.sham","no_press",0,"GAL","Go",0,174,"3",4,"neutral","Avoid",NA
"175","BNVN0020",12,10,11,12,9,1908,526,0,1,"a.sham","no_press",0,"NGW","noGo",1,175,"3",5,"win","Win","win"
"176","BNVN0020",11,10,11,12,9,2719,894,0,-1,"a.sham","no_press",0,"GAL","Go",0,176,"3",5,"lose","Avoid","lose"
"177","BNVN0020",10,10,11,12,9,2538,982,1395,0,"a.sham","press",1,"GW","Go",1,177,"3",3,"neutral","Win",NA
"178","BNVN0020",11,10,11,12,9,1788,811,1422,0,"a.sham","press",1,"GAL","Go",1,178,"3",6,"neutral","Avoid",NA
"179","BNVN0020",12,10,11,12,9,2745,525,0,0,"a.sham","no_press",0,"NGW","noGo",1,179,"3",6,"neutral","Win",NA
"180","BNVN0020",11,10,11,12,9,1807,881,0,-1,"a.sham","no_press",0,"GAL","Go",0,180,"3",7,"lose","Avoid","lose"
"181","BNVN0020",12,10,11,12,9,3876,758,0,1,"a.sham","no_press",0,"NGW","noGo",1,181,"3",7,"win","Win","win"
"182","BNVN0020",9,10,11,12,9,1615,939,0,0,"a.sham","no_press",0,"NGL","noGo",1,182,"3",5,"neutral","Avoid",NA
"183","BNVN0020",11,10,11,12,9,2451,933,1156,-1,"a.sham","press",1,"GAL","Go",1,183,"3",8,"lose","Avoid","lose"
"184","BNVN0020",10,10,11,12,9,1894,800,820,1,"a.sham","press",1,"GW","Go",1,184,"3",4,"win","Win","win"
"185","BNVN0020",10,10,11,12,9,2571,730,907,1,"a.sham","press",1,"GW","Go",1,185,"3",5,"win","Win","win"
"186","BNVN0020",10,10,11,12,9,2004,581,764,1,"a.sham","press",1,"GW","Go",1,186,"3",6,"win","Win","win"
"187","BNVN0020",9,10,11,12,9,2336,656,0,0,"a.sham","no_press",0,"NGL","noGo",1,187,"3",6,"neutral","Avoid",NA
"188","BNVN0020",9,10,11,12,9,1565,978,0,-1,"a.sham","no_press",0,"NGL","noGo",1,188,"3",7,"lose","Avoid","lose"
"189","BNVN0020",9,10,11,12,9,1678,817,0,0,"a.sham","no_press",0,"NGL","noGo",1,189,"3",8,"neutral","Avoid",NA
"190","BNVN0020",11,10,11,12,9,2337,933,0,-1,"a.sham","no_press",0,"GAL","Go",0,190,"3",9,"lose","Avoid","lose"
"191","BNVN0020",10,10,11,12,9,1620,572,676,1,"a.sham","press",1,"GW","Go",1,191,"3",7,"win","Win","win"
"192","BNVN0020",12,10,11,12,9,1725,761,0,0,"a.sham","no_press",0,"NGW","noGo",1,192,"3",8,"neutral","Win",NA
"193","BNVN0020",9,10,11,12,9,1937,951,0,0,"a.sham","no_press",0,"NGL","noGo",1,193,"3",9,"neutral","Avoid",NA
"194","BNVN0020",10,10,11,12,9,1432,736,545,0,"a.sham","press",1,"GW","Go",1,194,"3",8,"neutral","Win",NA
"195","BNVN0020",10,10,11,12,9,2518,680,711,1,"a.sham","press",1,"GW","Go",1,195,"3",9,"win","Win","win"
"196","BNVN0020",11,10,11,12,9,1721,909,857,0,"a.sham","press",1,"GAL","Go",1,196,"3",10,"neutral","Avoid",NA
"197","BNVN0020",11,10,11,12,9,1249,820,831,0,"a.sham","press",1,"GAL","Go",1,197,"3",11,"neutral","Avoid",NA
"198","BNVN0020",12,10,11,12,9,2273,779,0,1,"a.sham","no_press",0,"NGW","noGo",1,198,"3",9,"win","Win","win"
"199","BNVN0020",11,10,11,12,9,1967,562,936,0,"a.sham","press",1,"GAL","Go",1,199,"3",12,"neutral","Avoid",NA
"200","BNVN0020",10,10,11,12,9,1987,908,451,0,"a.sham","press",1,"GW","Go",1,200,"3",10,"neutral","Win",NA
"201","BNVN0020",11,10,11,12,9,1888,901,705,0,"a.sham","press",1,"GAL","Go",1,201,"3",13,"neutral","Avoid",NA
"202","BNVN0020",10,10,11,12,9,1688,664,679,1,"a.sham","press",1,"GW","Go",1,202,"3",11,"win","Win","win"
"203","BNVN0020",10,10,11,12,9,2131,902,691,1,"a.sham","press",1,"GW","Go",1,203,"3",12,"win","Win","win"
"204","BNVN0020",12,10,11,12,9,2444,519,0,1,"a.sham","no_press",0,"NGW","noGo",1,204,"3",10,"win","Win","win"
"205","BNVN0020",12,10,11,12,9,1879,994,0,0,"a.sham","no_press",0,"NGW","noGo",1,205,"3",11,"neutral","Win",NA
"206","BNVN0020",10,10,11,12,9,2185,780,777,1,"a.sham","press",1,"GW","Go",1,206,"3",13,"win","Win","win"
"207","BNVN0020",10,10,11,12,9,2557,602,769,1,"a.sham","press",1,"GW","Go",1,207,"3",14,"win","Win","win"
"208","BNVN0020",11,10,11,12,9,3158,508,852,0,"a.sham","press",1,"GAL","Go",1,208,"3",14,"neutral","Avoid",NA
"209","BNVN0020",12,10,11,12,9,1000,613,0,1,"a.sham","no_press",0,"NGW","noGo",1,209,"3",12,"win","Win","win"
"210","BNVN0020",12,10,11,12,9,3020,598,0,1,"a.sham","no_press",0,"NGW","noGo",1,210,"3",13,"win","Win","win"
"211","BNVN0020",10,10,11,12,9,2029,514,696,1,"a.sham","press",1,"GW","Go",1,211,"3",15,"win","Win","win"
"212","BNVN0020",12,10,11,12,9,2335,704,0,1,"a.sham","no_press",0,"NGW","noGo",1,212,"3",14,"win","Win","win"
"213","BNVN0020",10,10,11,12,9,2381,644,0,0,"a.sham","no_press",0,"GW","Go",0,213,"3",16,"neutral","Win",NA
"214","BNVN0020",12,10,11,12,9,1639,990,0,1,"a.sham","no_press",0,"NGW","noGo",1,214,"3",15,"win","Win","win"
"215","BNVN0020",9,10,11,12,9,1761,628,0,-1,"a.sham","no_press",0,"NGL","noGo",1,215,"3",10,"lose","Avoid","lose"
"216","BNVN0020",9,10,11,12,9,2010,759,674,-1,"a.sham","press",1,"NGL","noGo",0,216,"3",11,"lose","Avoid","lose"
"217","BNVN0020",12,10,11,12,9,2299,897,0,0,"a.sham","no_press",0,"NGW","noGo",1,217,"3",16,"neutral","Win",NA
"218","BNVN0020",12,10,11,12,9,1820,578,0,1,"a.sham","no_press",0,"NGW","noGo",1,218,"3",17,"win","Win","win"
"219","BNVN0020",12,10,11,12,9,2942,997,0,1,"a.sham","no_press",0,"NGW","noGo",1,219,"3",18,"win","Win","win"
"220","BNVN0020",10,10,11,12,9,2547,957,985,1,"a.sham","press",1,"GW","Go",1,220,"3",17,"win","Win","win"
"221","BNVN0020",9,10,11,12,9,2330,748,759,-1,"a.sham","press",1,"NGL","noGo",0,221,"3",12,"lose","Avoid","lose"
"222","BNVN0020",9,10,11,12,9,2601,935,0,-1,"a.sham","no_press",0,"NGL","noGo",1,222,"3",13,"lose","Avoid","lose"
"223","BNVN0020",10,10,11,12,9,1635,931,564,1,"a.sham","press",1,"GW","Go",1,223,"3",18,"win","Win","win"
"224","BNVN0020",11,10,11,12,9,2107,974,952,0,"a.sham","press",1,"GAL","Go",1,224,"3",15,"neutral","Avoid",NA
"225","BNVN0020",9,10,11,12,9,1509,648,646,-1,"a.sham","press",1,"NGL","noGo",0,225,"3",14,"lose","Avoid","lose"
"226","BNVN0020",12,10,11,12,9,5000,839,0,1,"a.sham","no_press",0,"NGW","noGo",1,226,"3",19,"win","Win","win"
"227","BNVN0020",12,10,11,12,9,2234,989,0,1,"a.sham","no_press",0,"NGW","noGo",1,227,"3",20,"win","Win","win"
"228","BNVN0020",9,10,11,12,9,1547,585,0,0,"a.sham","no_press",0,"NGL","noGo",1,228,"3",15,"neutral","Avoid",NA
"229","BNVN0020",9,10,11,12,9,2315,774,0,0,"a.sham","no_press",0,"NGL","noGo",1,229,"3",16,"neutral","Avoid",NA
"230","BNVN0020",9,10,11,12,9,2164,622,0,0,"a.sham","no_press",0,"NGL","noGo",1,230,"3",17,"neutral","Avoid",NA
"231","BNVN0020",11,10,11,12,9,2818,587,932,0,"a.sham","press",1,"GAL","Go",1,231,"3",16,"neutral","Avoid",NA
"232","BNVN0020",10,10,11,12,9,2482,767,735,0,"a.sham","press",1,"GW","Go",1,232,"3",19,"neutral","Win",NA
"233","BNVN0020",10,10,11,12,9,1344,965,579,1,"a.sham","press",1,"GW","Go",1,233,"3",20,"win","Win","win"
"234","BNVN0020",9,10,11,12,9,3276,640,0,0,"a.sham","no_press",0,"NGL","noGo",1,234,"3",18,"neutral","Avoid",NA
"235","BNVN0020",9,10,11,12,9,2298,671,0,0,"a.sham","no_press",0,"NGL","noGo",1,235,"3",19,"neutral","Avoid",NA
"236","BNVN0020",11,10,11,12,9,1785,928,965,0,"a.sham","press",1,"GAL","Go",1,236,"3",17,"neutral","Avoid",NA
"237","BNVN0020",11,10,11,12,9,1596,596,1056,0,"a.sham","press",1,"GAL","Go",1,237,"3",18,"neutral","Avoid",NA
"238","BNVN0020",9,10,11,12,9,1932,656,0,0,"a.sham","no_press",0,"NGL","noGo",1,238,"3",20,"neutral","Avoid",NA
"239","BNVN0020",11,10,11,12,9,2125,750,1099,0,"a.sham","press",1,"GAL","Go",1,239,"3",19,"neutral","Avoid",NA
"240","BNVN0020",11,10,11,12,9,1588,656,582,0,"a.sham","press",1,"GAL","Go",1,240,"3",20,"neutral","Avoid",NA
"241","BNVN0020",16,16,13,14,15,2492,783,907,1,"a.sham","press",1,"GW","Go",1,241,"4",1,"win","Win","win"
"242","BNVN0020",14,16,13,14,15,1869,934,643,0,"a.sham","press",1,"NGW","noGo",0,242,"4",1,"neutral","Win",NA
"243","BNVN0020",14,16,13,14,15,2794,638,854,1,"a.sham","press",1,"NGW","noGo",0,243,"4",2,"win","Win","win"
"244","BNVN0020",16,16,13,14,15,1346,710,619,1,"a.sham","press",1,"GW","Go",1,244,"4",2,"win","Win","win"
"245","BNVN0020",15,16,13,14,15,1474,840,1089,-1,"a.sham","press",1,"NGL","noGo",0,245,"4",1,"lose","Avoid","lose"
"246","BNVN0020",15,16,13,14,15,2776,515,0,0,"a.sham","no_press",0,"NGL","noGo",1,246,"4",2,"neutral","Avoid",NA
"247","BNVN0020",13,16,13,14,15,1990,805,0,-1,"a.sham","no_press",0,"GAL","Go",0,247,"4",1,"lose","Avoid","lose"
"248","BNVN0020",16,16,13,14,15,1942,698,436,0,"a.sham","press",1,"GW","Go",1,248,"4",3,"neutral","Win",NA
"249","BNVN0020",13,16,13,14,15,2873,820,760,0,"a.sham","press",1,"GAL","Go",1,249,"4",2,"neutral","Avoid",NA
"250","BNVN0020",14,16,13,14,15,2221,916,1147,0,"a.sham","press",1,"NGW","noGo",0,250,"4",3,"neutral","Win",NA
"251","BNVN0020",13,16,13,14,15,1822,631,0,0,"a.sham","no_press",0,"GAL","Go",0,251,"4",3,"neutral","Avoid",NA
"252","BNVN0020",15,16,13,14,15,1965,629,0,0,"a.sham","no_press",0,"NGL","noGo",1,252,"4",3,"neutral","Avoid",NA
"253","BNVN0020",14,16,13,14,15,2344,518,0,1,"a.sham","no_press",0,"NGW","noGo",1,253,"4",4,"win","Win","win"
"254","BNVN0020",15,16,13,14,15,2291,863,0,0,"a.sham","no_press",0,"NGL","noGo",1,254,"4",4,"neutral","Avoid",NA
"255","BNVN0020",15,16,13,14,15,2169,664,0,0,"a.sham","no_press",0,"NGL","noGo",1,255,"4",5,"neutral","Avoid",NA
"256","BNVN0020",15,16,13,14,15,2019,609,0,0,"a.sham","no_press",0,"NGL","noGo",1,256,"4",6,"neutral","Avoid",NA
"257","BNVN0020",14,16,13,14,15,2063,625,0,0,"a.sham","no_press",0,"NGW","noGo",1,257,"4",5,"neutral","Win",NA
"258","BNVN0020",16,16,13,14,15,1855,934,566,1,"a.sham","press",1,"GW","Go",1,258,"4",4,"win","Win","win"
"259","BNVN0020",15,16,13,14,15,1772,645,0,0,"a.sham","no_press",0,"NGL","noGo",1,259,"4",7,"neutral","Avoid",NA
"260","BNVN0020",13,16,13,14,15,1630,660,0,-1,"a.sham","no_press",0,"GAL","Go",0,260,"4",4,"lose","Avoid","lose"
"261","BNVN0020",15,16,13,14,15,2084,570,0,0,"a.sham","no_press",0,"NGL","noGo",1,261,"4",8,"neutral","Avoid",NA
"262","BNVN0020",13,16,13,14,15,2018,955,0,-1,"a.sham","no_press",0,"GAL","Go",0,262,"4",5,"lose","Avoid","lose"
"263","BNVN0020",16,16,13,14,15,2381,643,663,1,"a.sham","press",1,"GW","Go",1,263,"4",5,"win","Win","win"
"264","BNVN0020",13,16,13,14,15,3099,550,999,0,"a.sham","press",1,"GAL","Go",1,264,"4",6,"neutral","Avoid",NA
"265","BNVN0020",13,16,13,14,15,1825,598,536,-1,"a.sham","press",1,"GAL","Go",1,265,"4",7,"lose","Avoid","lose"
"266","BNVN0020",16,16,13,14,15,2402,775,514,1,"a.sham","press",1,"GW","Go",1,266,"4",6,"win","Win","win"
"267","BNVN0020",15,16,13,14,15,2348,591,0,0,"a.sham","no_press",0,"NGL","noGo",1,267,"4",9,"neutral","Avoid",NA
"268","BNVN0020",14,16,13,14,15,2357,966,867,0,"a.sham","press",1,"NGW","noGo",0,268,"4",6,"neutral","Win",NA
"269","BNVN0020",16,16,13,14,15,2228,968,638,1,"a.sham","press",1,"GW","Go",1,269,"4",7,"win","Win","win"
"270","BNVN0020",15,16,13,14,15,2237,541,0,-1,"a.sham","no_press",0,"NGL","noGo",1,270,"4",10,"lose","Avoid","lose"
"271","BNVN0020",14,16,13,14,15,2695,665,976,0,"a.sham","press",1,"NGW","noGo",0,271,"4",7,"neutral","Win",NA
"272","BNVN0020",14,16,13,14,15,3626,871,0,1,"a.sham","no_press",0,"NGW","noGo",1,272,"4",8,"win","Win","win"
"273","BNVN0020",15,16,13,14,15,1861,748,0,0,"a.sham","no_press",0,"NGL","noGo",1,273,"4",11,"neutral","Avoid",NA
"274","BNVN0020",13,16,13,14,15,2139,811,0,-1,"a.sham","no_press",0,"GAL","Go",0,274,"4",8,"lose","Avoid","lose"
"275","BNVN0020",16,16,13,14,15,2044,611,683,1,"a.sham","press",1,"GW","Go",1,275,"4",8,"win","Win","win"
"276","BNVN0020",15,16,13,14,15,2319,797,0,0,"a.sham","no_press",0,"NGL","noGo",1,276,"4",12,"neutral","Avoid",NA
"277","BNVN0020",16,16,13,14,15,2446,855,701,1,"a.sham","press",1,"GW","Go",1,277,"4",9,"win","Win","win"
"278","BNVN0020",15,16,13,14,15,2227,989,0,0,"a.sham","no_press",0,"NGL","noGo",1,278,"4",13,"neutral","Avoid",NA
"279","BNVN0020",16,16,13,14,15,1880,832,536,1,"a.sham","press",1,"GW","Go",1,279,"4",10,"win","Win","win"
"280","BNVN0020",16,16,13,14,15,1798,501,633,0,"a.sham","press",1,"GW","Go",1,280,"4",11,"neutral","Win",NA
"281","BNVN0020",14,16,13,14,15,2511,981,995,0,"a.sham","press",1,"NGW","noGo",0,281,"4",9,"neutral","Win",NA
"282","BNVN0020",15,16,13,14,15,2277,902,0,0,"a.sham","no_press",0,"NGL","noGo",1,282,"4",14,"neutral","Avoid",NA
"283","BNVN0020",15,16,13,14,15,1240,943,0,-1,"a.sham","no_press",0,"NGL","noGo",1,283,"4",15,"lose","Avoid","lose"
"284","BNVN0020",14,16,13,14,15,2692,677,663,0,"a.sham","press",1,"NGW","noGo",0,284,"4",10,"neutral","Win",NA
"285","BNVN0020",14,16,13,14,15,1678,753,0,1,"a.sham","no_press",0,"NGW","noGo",1,285,"4",11,"win","Win","win"
"286","BNVN0020",14,16,13,14,15,1771,635,0,1,"a.sham","no_press",0,"NGW","noGo",1,286,"4",12,"win","Win","win"
"287","BNVN0020",13,16,13,14,15,1885,578,854,0,"a.sham","press",1,"GAL","Go",1,287,"4",9,"neutral","Avoid",NA
"288","BNVN0020",14,16,13,14,15,1909,851,0,1,"a.sham","no_press",0,"NGW","noGo",1,288,"4",13,"win","Win","win"
"289","BNVN0020",14,16,13,14,15,1537,532,0,1,"a.sham","no_press",0,"NGW","noGo",1,289,"4",14,"win","Win","win"
"290","BNVN0020",13,16,13,14,15,1206,575,0,-1,"a.sham","no_press",0,"GAL","Go",0,290,"4",10,"lose","Avoid","lose"
"291","BNVN0020",15,16,13,14,15,2195,614,0,-1,"a.sham","no_press",0,"NGL","noGo",1,291,"4",16,"lose","Avoid","lose"
"292","BNVN0020",16,16,13,14,15,1543,525,586,1,"a.sham","press",1,"GW","Go",1,292,"4",12,"win","Win","win"
"293","BNVN0020",16,16,13,14,15,2057,758,799,1,"a.sham","press",1,"GW","Go",1,293,"4",13,"win","Win","win"
"294","BNVN0020",14,16,13,14,15,1196,813,0,0,"a.sham","no_press",0,"NGW","noGo",1,294,"4",15,"neutral","Win",NA
"295","BNVN0020",15,16,13,14,15,1462,770,0,0,"a.sham","no_press",0,"NGL","noGo",1,295,"4",17,"neutral","Avoid",NA
"296","BNVN0020",14,16,13,14,15,1743,521,0,1,"a.sham","no_press",0,"NGW","noGo",1,296,"4",16,"win","Win","win"
"297","BNVN0020",14,16,13,14,15,1504,923,0,0,"a.sham","no_press",0,"NGW","noGo",1,297,"4",17,"neutral","Win",NA
"298","BNVN0020",13,16,13,14,15,1964,670,970,0,"a.sham","press",1,"GAL","Go",1,298,"4",11,"neutral","Avoid",NA
"299","BNVN0020",13,16,13,14,15,2041,703,774,0,"a.sham","press",1,"GAL","Go",1,299,"4",12,"neutral","Avoid",NA
"300","BNVN0020",13,16,13,14,15,1953,531,898,-1,"a.sham","press",1,"GAL","Go",1,300,"4",13,"lose","Avoid","lose"
"301","BNVN0020",13,16,13,14,15,2026,836,634,0,"a.sham","press",1,"GAL","Go",1,301,"4",14,"neutral","Avoid",NA
"302","BNVN0020",15,16,13,14,15,2234,740,0,-1,"a.sham","no_press",0,"NGL","noGo",1,302,"4",18,"lose","Avoid","lose"
"303","BNVN0020",13,16,13,14,15,1189,981,682,0,"a.sham","press",1,"GAL","Go",1,303,"4",15,"neutral","Avoid",NA
"304","BNVN0020",16,16,13,14,15,1479,865,583,0,"a.sham","press",1,"GW","Go",1,304,"4",14,"neutral","Win",NA
"305","BNVN0020",13,16,13,14,15,1000,573,899,0,"a.sham","press",1,"GAL","Go",1,305,"4",16,"neutral","Avoid",NA
"306","BNVN0020",13,16,13,14,15,2448,766,649,0,"a.sham","press",1,"GAL","Go",1,306,"4",17,"neutral","Avoid",NA
"307","BNVN0020",14,16,13,14,15,3515,968,716,0,"a.sham","press",1,"NGW","noGo",0,307,"4",18,"neutral","Win",NA
"308","BNVN0020",15,16,13,14,15,2080,843,0,0,"a.sham","no_press",0,"NGL","noGo",1,308,"4",19,"neutral","Avoid",NA
"309","BNVN0020",16,16,13,14,15,1666,773,646,1,"a.sham","press",1,"GW","Go",1,309,"4",15,"win","Win","win"
"310","BNVN0020",13,16,13,14,15,2977,616,789,0,"a.sham","press",1,"GAL","Go",1,310,"4",18,"neutral","Avoid",NA
"311","BNVN0020",15,16,13,14,15,1615,728,0,0,"a.sham","no_press",0,"NGL","noGo",1,311,"4",20,"neutral","Avoid",NA
"312","BNVN0020",16,16,13,14,15,1266,686,620,1,"a.sham","press",1,"GW","Go",1,312,"4",16,"win","Win","win"
"313","BNVN0020",16,16,13,14,15,1848,826,656,1,"a.sham","press",1,"GW","Go",1,313,"4",17,"win","Win","win"
"314","BNVN0020",13,16,13,14,15,1634,911,1346,0,"a.sham","press",1,"GAL","Go",1,314,"4",19,"neutral","Avoid",NA
"315","BNVN0020",16,16,13,14,15,2032,576,569,1,"a.sham","press",1,"GW","Go",1,315,"4",18,"win","Win","win"
"316","BNVN0020",13,16,13,14,15,2372,947,1375,0,"a.sham","press",1,"GAL","Go",1,316,"4",20,"neutral","Avoid",NA
"317","BNVN0020",14,16,13,14,15,2239,644,674,0,"a.sham","press",1,"NGW","noGo",0,317,"4",19,"neutral","Win",NA
"318","BNVN0020",16,16,13,14,15,2367,900,549,0,"a.sham","press",1,"GW","Go",1,318,"4",19,"neutral","Win",NA
"319","BNVN0020",14,16,13,14,15,2126,913,0,1,"a.sham","no_press",0,"NGW","noGo",1,319,"4",20,"win","Win","win"
"320","BNVN0020",16,16,13,14,15,1965,875,626,1,"a.sham","press",1,"GW","Go",1,320,"4",20,"win","Win","win"
"321","DIVL0216",1,2,3,4,1,1676,517,0,0,"a.sham","no_press",0,"NGL","noGo",1,1,"1",1,"neutral","Avoid",NA
"322","DIVL0216",3,2,3,4,1,1755,536,0,-1,"a.sham","no_press",0,"GAL","Go",0,2,"1",1,"lose","Avoid","lose"
"323","DIVL0216",3,2,3,4,1,2674,572,315,-1,"a.sham","press",1,"GAL","Go",1,3,"1",2,"lose","Avoid","lose"
"324","DIVL0216",1,2,3,4,1,1486,962,970,-1,"a.sham","press",1,"NGL","noGo",0,4,"1",2,"lose","Avoid","lose"
"325","DIVL0216",4,2,3,4,1,2198,690,578,0,"a.sham","press",1,"NGW","noGo",0,5,"1",1,"neutral","Win",NA
"326","DIVL0216",2,2,3,4,1,2158,985,505,1,"a.sham","press",1,"GW","Go",1,6,"1",1,"win","Win","win"
"327","DIVL0216",4,2,3,4,1,1771,786,523,0,"a.sham","press",1,"NGW","noGo",0,7,"1",2,"neutral","Win",NA
"328","DIVL0216",3,2,3,4,1,2508,893,440,-1,"a.sham","press",1,"GAL","Go",1,8,"1",3,"lose","Avoid","lose"
"329","DIVL0216",2,2,3,4,1,2757,696,439,1,"a.sham","press",1,"GW","Go",1,9,"1",2,"win","Win","win"
"330","DIVL0216",2,2,3,4,1,2082,605,535,1,"a.sham","press",1,"GW","Go",1,10,"1",3,"win","Win","win"
"331","DIVL0216",2,2,3,4,1,1821,778,428,1,"a.sham","press",1,"GW","Go",1,11,"1",4,"win","Win","win"
"332","DIVL0216",4,2,3,4,1,2015,842,634,0,"a.sham","press",1,"NGW","noGo",0,12,"1",3,"neutral","Win",NA
"333","DIVL0216",3,2,3,4,1,1477,581,434,0,"a.sham","press",1,"GAL","Go",1,13,"1",4,"neutral","Avoid",NA
"334","DIVL0216",4,2,3,4,1,1525,631,0,0,"a.sham","no_press",0,"NGW","noGo",1,14,"1",4,"neutral","Win",NA
"335","DIVL0216",3,2,3,4,1,2103,658,0,-1,"a.sham","no_press",0,"GAL","Go",0,15,"1",5,"lose","Avoid","lose"
"336","DIVL0216",2,2,3,4,1,1000,582,402,1,"a.sham","press",1,"GW","Go",1,16,"1",5,"win","Win","win"
"337","DIVL0216",1,2,3,4,1,1616,700,668,-1,"a.sham","press",1,"NGL","noGo",0,17,"1",3,"lose","Avoid","lose"
"338","DIVL0216",2,2,3,4,1,3088,919,509,1,"a.sham","press",1,"GW","Go",1,18,"1",6,"win","Win","win"
"339","DIVL0216",3,2,3,4,1,1840,599,554,0,"a.sham","press",1,"GAL","Go",1,19,"1",6,"neutral","Avoid",NA
"340","DIVL0216",1,2,3,4,1,1989,750,0,0,"a.sham","no_press",0,"NGL","noGo",1,20,"1",4,"neutral","Avoid",NA
"341","DIVL0216",4,2,3,4,1,1712,884,0,1,"a.sham","no_press",0,"NGW","noGo",1,21,"1",5,"win","Win","win"
"342","DIVL0216",2,2,3,4,1,3465,574,456,1,"a.sham","press",1,"GW","Go",1,22,"1",7,"win","Win","win"
"343","DIVL0216",3,2,3,4,1,1653,733,593,0,"a.sham","press",1,"GAL","Go",1,23,"1",7,"neutral","Avoid",NA
"344","DIVL0216",2,2,3,4,1,1160,659,432,1,"a.sham","press",1,"GW","Go",1,24,"1",8,"win","Win","win"
"345","DIVL0216",2,2,3,4,1,2606,999,394,0,"a.sham","press",1,"GW","Go",1,25,"1",9,"neutral","Win",NA
"346","DIVL0216",2,2,3,4,1,1000,802,449,1,"a.sham","press",1,"GW","Go",1,26,"1",10,"win","Win","win"
"347","DIVL0216",3,2,3,4,1,1486,504,362,0,"a.sham","press",1,"GAL","Go",1,27,"1",8,"neutral","Avoid",NA
"348","DIVL0216",3,2,3,4,1,2439,985,388,-1,"a.sham","press",1,"GAL","Go",1,28,"1",9,"lose","Avoid","lose"
"349","DIVL0216",4,2,3,4,1,1530,1000,0,1,"a.sham","no_press",0,"NGW","noGo",1,29,"1",6,"win","Win","win"
"350","DIVL0216",1,2,3,4,1,2964,782,0,0,"a.sham","no_press",0,"NGL","noGo",1,30,"1",5,"neutral","Avoid",NA
"351","DIVL0216",1,2,3,4,1,3377,632,0,0,"a.sham","no_press",0,"NGL","noGo",1,31,"1",6,"neutral","Avoid",NA
"352","DIVL0216",2,2,3,4,1,2136,880,503,0,"a.sham","press",1,"GW","Go",1,32,"1",11,"neutral","Win",NA
"353","DIVL0216",2,2,3,4,1,1876,845,488,1,"a.sham","press",1,"GW","Go",1,33,"1",12,"win","Win","win"
"354","DIVL0216",3,2,3,4,1,1577,706,508,0,"a.sham","press",1,"GAL","Go",1,34,"1",10,"neutral","Avoid",NA
"355","DIVL0216",2,2,3,4,1,1211,630,404,1,"a.sham","press",1,"GW","Go",1,35,"1",13,"win","Win","win"
"356","DIVL0216",4,2,3,4,1,2144,894,0,1,"a.sham","no_press",0,"NGW","noGo",1,36,"1",7,"win","Win","win"
"357","DIVL0216",2,2,3,4,1,1279,728,451,0,"a.sham","press",1,"GW","Go",1,37,"1",14,"neutral","Win",NA
"358","DIVL0216",1,2,3,4,1,2172,989,0,0,"a.sham","no_press",0,"NGL","noGo",1,38,"1",7,"neutral","Avoid",NA
"359","DIVL0216",1,2,3,4,1,2308,977,0,0,"a.sham","no_press",0,"NGL","noGo",1,39,"1",8,"neutral","Avoid",NA
"360","DIVL0216",4,2,3,4,1,1816,898,0,1,"a.sham","no_press",0,"NGW","noGo",1,40,"1",8,"win","Win","win"
"361","DIVL0216",3,2,3,4,1,2116,851,517,0,"a.sham","press",1,"GAL","Go",1,41,"1",11,"neutral","Avoid",NA
"362","DIVL0216",3,2,3,4,1,3042,934,533,0,"a.sham","press",1,"GAL","Go",1,42,"1",12,"neutral","Avoid",NA
"363","DIVL0216",2,2,3,4,1,1643,610,448,1,"a.sham","press",1,"GW","Go",1,43,"1",15,"win","Win","win"
"364","DIVL0216",1,2,3,4,1,2307,610,0,0,"a.sham","no_press",0,"NGL","noGo",1,44,"1",9,"neutral","Avoid",NA
"365","DIVL0216",3,2,3,4,1,2023,1000,363,0,"a.sham","press",1,"GAL","Go",1,45,"1",13,"neutral","Avoid",NA
"366","DIVL0216",3,2,3,4,1,1254,742,390,-1,"a.sham","press",1,"GAL","Go",1,46,"1",14,"lose","Avoid","lose"
"367","DIVL0216",4,2,3,4,1,1809,835,0,1,"a.sham","no_press",0,"NGW","noGo",1,47,"1",9,"win","Win","win"
"368","DIVL0216",1,2,3,4,1,1596,948,0,0,"a.sham","no_press",0,"NGL","noGo",1,48,"1",10,"neutral","Avoid",NA
"369","DIVL0216",3,2,3,4,1,1752,524,497,0,"a.sham","press",1,"GAL","Go",1,49,"1",15,"neutral","Avoid",NA
"370","DIVL0216",4,2,3,4,1,1469,659,0,0,"a.sham","no_press",0,"NGW","noGo",1,50,"1",10,"neutral","Win",NA
"371","DIVL0216",3,2,3,4,1,2200,960,426,0,"a.sham","press",1,"GAL","Go",1,51,"1",16,"neutral","Avoid",NA
"372","DIVL0216",1,2,3,4,1,1155,530,0,-1,"a.sham","no_press",0,"NGL","noGo",1,52,"1",11,"lose","Avoid","lose"
"373","DIVL0216",1,2,3,4,1,2314,611,0,0,"a.sham","no_press",0,"NGL","noGo",1,53,"1",12,"neutral","Avoid",NA
"374","DIVL0216",1,2,3,4,1,1803,612,0,-1,"a.sham","no_press",0,"NGL","noGo",1,54,"1",13,"lose","Avoid","lose"
"375","DIVL0216",2,2,3,4,1,2454,810,396,1,"a.sham","press",1,"GW","Go",1,55,"1",16,"win","Win","win"
"376","DIVL0216",4,2,3,4,1,2225,582,0,1,"a.sham","no_press",0,"NGW","noGo",1,56,"1",11,"win","Win","win"
"377","DIVL0216",1,2,3,4,1,1491,567,0,0,"a.sham","no_press",0,"NGL","noGo",1,57,"1",14,"neutral","Avoid",NA
"378","DIVL0216",1,2,3,4,1,2428,892,0,0,"a.sham","no_press",0,"NGL","noGo",1,58,"1",15,"neutral","Avoid",NA
"379","DIVL0216",1,2,3,4,1,1996,741,0,0,"a.sham","no_press",0,"NGL","noGo",1,59,"1",16,"neutral","Avoid",NA
"380","DIVL0216",1,2,3,4,1,1000,753,0,0,"a.sham","no_press",0,"NGL","noGo",1,60,"1",17,"neutral","Avoid",NA
"381","DIVL0216",4,2,3,4,1,3438,974,0,1,"a.sham","no_press",0,"NGW","noGo",1,61,"1",12,"win","Win","win"
"382","DIVL0216",3,2,3,4,1,1765,772,575,0,"a.sham","press",1,"GAL","Go",1,62,"1",17,"neutral","Avoid",NA
"383","DIVL0216",2,2,3,4,1,2224,508,425,1,"a.sham","press",1,"GW","Go",1,63,"1",17,"win","Win","win"
"384","DIVL0216",4,2,3,4,1,2355,717,0,1,"a.sham","no_press",0,"NGW","noGo",1,64,"1",13,"win","Win","win"
"385","DIVL0216",4,2,3,4,1,1486,750,0,0,"a.sham","no_press",0,"NGW","noGo",1,65,"1",14,"neutral","Win",NA
"386","DIVL0216",4,2,3,4,1,3256,838,0,1,"a.sham","no_press",0,"NGW","noGo",1,66,"1",15,"win","Win","win"
"387","DIVL0216",1,2,3,4,1,1498,890,0,-1,"a.sham","no_press",0,"NGL","noGo",1,67,"1",18,"lose","Avoid","lose"
"388","DIVL0216",3,2,3,4,1,2502,705,544,0,"a.sham","press",1,"GAL","Go",1,68,"1",18,"neutral","Avoid",NA
"389","DIVL0216",3,2,3,4,1,1468,937,493,0,"a.sham","press",1,"GAL","Go",1,69,"1",19,"neutral","Avoid",NA
"390","DIVL0216",4,2,3,4,1,5000,973,0,1,"a.sham","no_press",0,"NGW","noGo",1,70,"1",16,"win","Win","win"
"391","DIVL0216",4,2,3,4,1,2096,535,0,1,"a.sham","no_press",0,"NGW","noGo",1,71,"1",17,"win","Win","win"
"392","DIVL0216",4,2,3,4,1,1773,507,0,0,"a.sham","no_press",0,"NGW","noGo",1,72,"1",18,"neutral","Win",NA
"393","DIVL0216",1,2,3,4,1,1681,712,0,0,"a.sham","no_press",0,"NGL","noGo",1,73,"1",19,"neutral","Avoid",NA
"394","DIVL0216",4,2,3,4,1,1813,875,0,1,"a.sham","no_press",0,"NGW","noGo",1,74,"1",19,"win","Win","win"
"395","DIVL0216",2,2,3,4,1,2547,635,445,0,"a.sham","press",1,"GW","Go",1,75,"1",18,"neutral","Win",NA
"396","DIVL0216",3,2,3,4,1,1827,699,477,0,"a.sham","press",1,"GAL","Go",1,76,"1",20,"neutral","Avoid",NA
"397","DIVL0216",1,2,3,4,1,1000,930,0,0,"a.sham","no_press",0,"NGL","noGo",1,77,"1",20,"neutral","Avoid",NA
"398","DIVL0216",2,2,3,4,1,1857,549,392,1,"a.sham","press",1,"GW","Go",1,78,"1",19,"win","Win","win"
"399","DIVL0216",2,2,3,4,1,2632,605,450,1,"a.sham","press",1,"GW","Go",1,79,"1",20,"win","Win","win"
"400","DIVL0216",4,2,3,4,1,3396,679,371,0,"a.sham","press",1,"NGW","noGo",0,80,"1",20,"neutral","Win",NA
"401","DIVL0216",6,6,7,8,5,1699,889,640,1,"a.sham","press",1,"GW","Go",1,81,"2",1,"win","Win","win"
"402","DIVL0216",6,6,7,8,5,1645,532,318,1,"a.sham","press",1,"GW","Go",1,82,"2",2,"win","Win","win"
"403","DIVL0216",5,6,7,8,5,1402,601,0,0,"a.sham","no_press",0,"NGL","noGo",1,83,"2",1,"neutral","Avoid",NA
"404","DIVL0216",6,6,7,8,5,2434,890,644,1,"a.sham","press",1,"GW","Go",1,84,"2",3,"win","Win","win"
"405","DIVL0216",7,6,7,8,5,1491,960,509,-1,"a.sham","press",1,"GAL","Go",1,85,"2",1,"lose","Avoid","lose"
"406","DIVL0216",7,6,7,8,5,2188,654,0,-1,"a.sham","no_press",0,"GAL","Go",0,86,"2",2,"lose","Avoid","lose"
"407","DIVL0216",6,6,7,8,5,2209,831,517,1,"a.sham","press",1,"GW","Go",1,87,"2",4,"win","Win","win"
"408","DIVL0216",7,6,7,8,5,2712,723,537,0,"a.sham","press",1,"GAL","Go",1,88,"2",3,"neutral","Avoid",NA
"409","DIVL0216",7,6,7,8,5,3823,727,0,-1,"a.sham","no_press",0,"GAL","Go",0,89,"2",4,"lose","Avoid","lose"
"410","DIVL0216",8,6,7,8,5,2044,745,589,0,"a.sham","press",1,"NGW","noGo",0,90,"2",1,"neutral","Win",NA
"411","DIVL0216",5,6,7,8,5,1657,803,0,0,"a.sham","no_press",0,"NGL","noGo",1,91,"2",2,"neutral","Avoid",NA
"412","DIVL0216",7,6,7,8,5,1735,827,615,0,"a.sham","press",1,"GAL","Go",1,92,"2",5,"neutral","Avoid",NA
"413","DIVL0216",7,6,7,8,5,1826,538,534,0,"a.sham","press",1,"GAL","Go",1,93,"2",6,"neutral","Avoid",NA
"414","DIVL0216",5,6,7,8,5,1462,841,0,0,"a.sham","no_press",0,"NGL","noGo",1,94,"2",3,"neutral","Avoid",NA
"415","DIVL0216",5,6,7,8,5,2480,966,0,0,"a.sham","no_press",0,"NGL","noGo",1,95,"2",4,"neutral","Avoid",NA
"416","DIVL0216",8,6,7,8,5,2596,805,0,1,"a.sham","no_press",0,"NGW","noGo",1,96,"2",2,"win","Win","win"
"417","DIVL0216",5,6,7,8,5,1838,635,0,0,"a.sham","no_press",0,"NGL","noGo",1,97,"2",5,"neutral","Avoid",NA
"418","DIVL0216",6,6,7,8,5,2336,511,521,1,"a.sham","press",1,"GW","Go",1,98,"2",5,"win","Win","win"
"419","DIVL0216",7,6,7,8,5,1000,941,420,0,"a.sham","press",1,"GAL","Go",1,99,"2",7,"neutral","Avoid",NA
"420","DIVL0216",7,6,7,8,5,1652,894,434,0,"a.sham","press",1,"GAL","Go",1,100,"2",8,"neutral","Avoid",NA
"421","DIVL0216",5,6,7,8,5,1439,535,402,0,"a.sham","press",1,"NGL","noGo",0,101,"2",6,"neutral","Avoid",NA
"422","DIVL0216",8,6,7,8,5,2000,526,0,1,"a.sham","no_press",0,"NGW","noGo",1,102,"2",3,"win","Win","win"
"423","DIVL0216",8,6,7,8,5,1540,714,0,1,"a.sham","no_press",0,"NGW","noGo",1,103,"2",4,"win","Win","win"
"424","DIVL0216",7,6,7,8,5,2512,864,541,0,"a.sham","press",1,"GAL","Go",1,104,"2",9,"neutral","Avoid",NA
"425","DIVL0216",5,6,7,8,5,1732,546,0,0,"a.sham","no_press",0,"NGL","noGo",1,105,"2",7,"neutral","Avoid",NA
"426","DIVL0216",8,6,7,8,5,1768,595,0,1,"a.sham","no_press",0,"NGW","noGo",1,106,"2",5,"win","Win","win"
"427","DIVL0216",7,6,7,8,5,1744,991,490,0,"a.sham","press",1,"GAL","Go",1,107,"2",10,"neutral","Avoid",NA
"428","DIVL0216",5,6,7,8,5,2103,686,0,0,"a.sham","no_press",0,"NGL","noGo",1,108,"2",8,"neutral","Avoid",NA
"429","DIVL0216",6,6,7,8,5,1783,711,504,1,"a.sham","press",1,"GW","Go",1,109,"2",6,"win","Win","win"
"430","DIVL0216",6,6,7,8,5,1574,546,475,0,"a.sham","press",1,"GW","Go",1,110,"2",7,"neutral","Win",NA
"431","DIVL0216",8,6,7,8,5,1446,561,0,1,"a.sham","no_press",0,"NGW","noGo",1,111,"2",6,"win","Win","win"
"432","DIVL0216",7,6,7,8,5,1929,746,462,0,"a.sham","press",1,"GAL","Go",1,112,"2",11,"neutral","Avoid",NA
"433","DIVL0216",6,6,7,8,5,1182,990,413,1,"a.sham","press",1,"GW","Go",1,113,"2",8,"win","Win","win"
"434","DIVL0216",5,6,7,8,5,2628,763,0,0,"a.sham","no_press",0,"NGL","noGo",1,114,"2",9,"neutral","Avoid",NA
"435","DIVL0216",6,6,7,8,5,2813,776,462,1,"a.sham","press",1,"GW","Go",1,115,"2",9,"win","Win","win"
"436","DIVL0216",7,6,7,8,5,2137,834,457,-1,"a.sham","press",1,"GAL","Go",1,116,"2",12,"lose","Avoid","lose"
"437","DIVL0216",6,6,7,8,5,1741,852,405,1,"a.sham","press",1,"GW","Go",1,117,"2",10,"win","Win","win"
"438","DIVL0216",7,6,7,8,5,1867,632,393,-1,"a.sham","press",1,"GAL","Go",1,118,"2",13,"lose","Avoid","lose"
"439","DIVL0216",5,6,7,8,5,2086,739,0,0,"a.sham","no_press",0,"NGL","noGo",1,119,"2",10,"neutral","Avoid",NA
"440","DIVL0216",7,6,7,8,5,2035,698,410,0,"a.sham","press",1,"GAL","Go",1,120,"2",14,"neutral","Avoid",NA
"441","DIVL0216",8,6,7,8,5,1761,871,0,0,"a.sham","no_press",0,"NGW","noGo",1,121,"2",7,"neutral","Win",NA
"442","DIVL0216",5,6,7,8,5,1756,677,0,0,"a.sham","no_press",0,"NGL","noGo",1,122,"2",11,"neutral","Avoid",NA
"443","DIVL0216",7,6,7,8,5,1487,748,489,0,"a.sham","press",1,"GAL","Go",1,123,"2",15,"neutral","Avoid",NA
"444","DIVL0216",5,6,7,8,5,1321,653,0,0,"a.sham","no_press",0,"NGL","noGo",1,124,"2",12,"neutral","Avoid",NA
"445","DIVL0216",7,6,7,8,5,2969,961,473,0,"a.sham","press",1,"GAL","Go",1,125,"2",16,"neutral","Avoid",NA
"446","DIVL0216",6,6,7,8,5,1584,940,404,1,"a.sham","press",1,"GW","Go",1,126,"2",11,"win","Win","win"
"447","DIVL0216",8,6,7,8,5,2659,662,0,0,"a.sham","no_press",0,"NGW","noGo",1,127,"2",8,"neutral","Win",NA
"448","DIVL0216",7,6,7,8,5,2044,600,468,0,"a.sham","press",1,"GAL","Go",1,128,"2",17,"neutral","Avoid",NA
"449","DIVL0216",5,6,7,8,5,1928,707,0,0,"a.sham","no_press",0,"NGL","noGo",1,129,"2",13,"neutral","Avoid",NA
"450","DIVL0216",8,6,7,8,5,1617,600,0,1,"a.sham","no_press",0,"NGW","noGo",1,130,"2",9,"win","Win","win"
"451","DIVL0216",6,6,7,8,5,2200,794,476,1,"a.sham","press",1,"GW","Go",1,131,"2",12,"win","Win","win"
"452","DIVL0216",8,6,7,8,5,2185,608,0,0,"a.sham","no_press",0,"NGW","noGo",1,132,"2",10,"neutral","Win",NA
"453","DIVL0216",8,6,7,8,5,1617,550,0,1,"a.sham","no_press",0,"NGW","noGo",1,133,"2",11,"win","Win","win"
"454","DIVL0216",8,6,7,8,5,1962,566,0,1,"a.sham","no_press",0,"NGW","noGo",1,134,"2",12,"win","Win","win"
"455","DIVL0216",8,6,7,8,5,1447,585,0,1,"a.sham","no_press",0,"NGW","noGo",1,135,"2",13,"win","Win","win"
"456","DIVL0216",8,6,7,8,5,1000,862,0,1,"a.sham","no_press",0,"NGW","noGo",1,136,"2",14,"win","Win","win"
"457","DIVL0216",6,6,7,8,5,1671,521,426,0,"a.sham","press",1,"GW","Go",1,137,"2",13,"neutral","Win",NA
"458","DIVL0216",5,6,7,8,5,1518,850,0,0,"a.sham","no_press",0,"NGL","noGo",1,138,"2",14,"neutral","Avoid",NA
"459","DIVL0216",5,6,7,8,5,1747,983,0,0,"a.sham","no_press",0,"NGL","noGo",1,139,"2",15,"neutral","Avoid",NA
"460","DIVL0216",5,6,7,8,5,1823,888,0,0,"a.sham","no_press",0,"NGL","noGo",1,140,"2",16,"neutral","Avoid",NA
"461","DIVL0216",6,6,7,8,5,3087,609,442,0,"a.sham","press",1,"GW","Go",1,141,"2",14,"neutral","Win",NA
"462","DIVL0216",6,6,7,8,5,2518,762,455,1,"a.sham","press",1,"GW","Go",1,142,"2",15,"win","Win","win"
"463","DIVL0216",8,6,7,8,5,1915,924,0,1,"a.sham","no_press",0,"NGW","noGo",1,143,"2",15,"win","Win","win"
"464","DIVL0216",7,6,7,8,5,1633,645,547,0,"a.sham","press",1,"GAL","Go",1,144,"2",18,"neutral","Avoid",NA
"465","DIVL0216",5,6,7,8,5,2353,853,0,0,"a.sham","no_press",0,"NGL","noGo",1,145,"2",17,"neutral","Avoid",NA
"466","DIVL0216",6,6,7,8,5,2090,768,383,0,"a.sham","press",1,"GW","Go",1,146,"2",16,"neutral","Win",NA
"467","DIVL0216",8,6,7,8,5,1183,876,0,1,"a.sham","no_press",0,"NGW","noGo",1,147,"2",16,"win","Win","win"
"468","DIVL0216",6,6,7,8,5,2031,970,380,1,"a.sham","press",1,"GW","Go",1,148,"2",17,"win","Win","win"
"469","DIVL0216",8,6,7,8,5,1652,683,0,0,"a.sham","no_press",0,"NGW","noGo",1,149,"2",17,"neutral","Win",NA
"470","DIVL0216",6,6,7,8,5,2369,569,378,1,"a.sham","press",1,"GW","Go",1,150,"2",18,"win","Win","win"
"471","DIVL0216",5,6,7,8,5,1948,847,0,-1,"a.sham","no_press",0,"NGL","noGo",1,151,"2",18,"lose","Avoid","lose"
"472","DIVL0216",8,6,7,8,5,3073,812,0,1,"a.sham","no_press",0,"NGW","noGo",1,152,"2",18,"win","Win","win"
"473","DIVL0216",8,6,7,8,5,1928,522,0,1,"a.sham","no_press",0,"NGW","noGo",1,153,"2",19,"win","Win","win"
"474","DIVL0216",7,6,7,8,5,2446,753,490,0,"a.sham","press",1,"GAL","Go",1,154,"2",19,"neutral","Avoid",NA
"475","DIVL0216",6,6,7,8,5,1773,870,417,1,"a.sham","press",1,"GW","Go",1,155,"2",19,"win","Win","win"
"476","DIVL0216",5,6,7,8,5,1657,966,0,-1,"a.sham","no_press",0,"NGL","noGo",1,156,"2",19,"lose","Avoid","lose"
"477","DIVL0216",6,6,7,8,5,1196,842,429,1,"a.sham","press",1,"GW","Go",1,157,"2",20,"win","Win","win"
"478","DIVL0216",8,6,7,8,5,1944,564,0,1,"a.sham","no_press",0,"NGW","noGo",1,158,"2",20,"win","Win","win"
"479","DIVL0216",7,6,7,8,5,1815,535,449,-1,"a.sham","press",1,"GAL","Go",1,159,"2",20,"lose","Avoid","lose"
"480","DIVL0216",5,6,7,8,5,1430,971,0,0,"a.sham","no_press",0,"NGL","noGo",1,160,"2",20,"neutral","Avoid",NA
"481","DIVL0216",9,12,11,10,9,1573,750,0,0,"a.sham","no_press",0,"NGL","noGo",1,161,"3",1,"neutral","Avoid",NA
"482","DIVL0216",9,12,11,10,9,2135,900,891,-1,"a.sham","press",1,"NGL","noGo",0,162,"3",2,"lose","Avoid","lose"
"483","DIVL0216",11,12,11,10,9,1791,982,519,0,"a.sham","press",1,"GAL","Go",1,163,"3",1,"neutral","Avoid",NA
"484","DIVL0216",9,12,11,10,9,1995,583,0,0,"a.sham","no_press",0,"NGL","noGo",1,164,"3",3,"neutral","Avoid",NA
"485","DIVL0216",9,12,11,10,9,2247,820,0,-1,"a.sham","no_press",0,"NGL","noGo",1,165,"3",4,"lose","Avoid","lose"
"486","DIVL0216",12,12,11,10,9,1727,598,566,1,"a.sham","press",1,"GW","Go",1,166,"3",1,"win","Win","win"
"487","DIVL0216",11,12,11,10,9,1982,568,0,-1,"a.sham","no_press",0,"GAL","Go",0,167,"3",2,"lose","Avoid","lose"
"488","DIVL0216",10,12,11,10,9,2075,938,605,0,"a.sham","press",1,"NGW","noGo",0,168,"3",1,"neutral","Win",NA
"489","DIVL0216",10,12,11,10,9,2253,723,0,0,"a.sham","no_press",0,"NGW","noGo",1,169,"3",2,"neutral","Win",NA
"490","DIVL0216",10,12,11,10,9,1776,580,0,1,"a.sham","no_press",0,"NGW","noGo",1,170,"3",3,"win","Win","win"
"491","DIVL0216",9,12,11,10,9,1832,846,0,0,"a.sham","no_press",0,"NGL","noGo",1,171,"3",5,"neutral","Avoid",NA
"492","DIVL0216",11,12,11,10,9,1923,916,459,0,"a.sham","press",1,"GAL","Go",1,172,"3",3,"neutral","Avoid",NA
"493","DIVL0216",9,12,11,10,9,2533,822,0,0,"a.sham","no_press",0,"NGL","noGo",1,173,"3",6,"neutral","Avoid",NA
"494","DIVL0216",10,12,11,10,9,1773,612,0,1,"a.sham","no_press",0,"NGW","noGo",1,174,"3",4,"win","Win","win"
"495","DIVL0216",12,12,11,10,9,2810,919,493,1,"a.sham","press",1,"GW","Go",1,175,"3",2,"win","Win","win"
"496","DIVL0216",10,12,11,10,9,1780,685,0,1,"a.sham","no_press",0,"NGW","noGo",1,176,"3",5,"win","Win","win"
"497","DIVL0216",12,12,11,10,9,1918,653,538,0,"a.sham","press",1,"GW","Go",1,177,"3",3,"neutral","Win",NA
"498","DIVL0216",9,12,11,10,9,1368,975,0,0,"a.sham","no_press",0,"NGL","noGo",1,178,"3",7,"neutral","Avoid",NA
"499","DIVL0216",11,12,11,10,9,3444,600,0,0,"a.sham","no_press",0,"GAL","Go",0,179,"3",4,"neutral","Avoid",NA
"500","DIVL0216",9,12,11,10,9,1559,811,0,0,"a.sham","no_press",0,"NGL","noGo",1,180,"3",8,"neutral","Avoid",NA
"501","DIVL0216",9,12,11,10,9,2256,619,0,0,"a.sham","no_press",0,"NGL","noGo",1,181,"3",9,"neutral","Avoid",NA
"502","DIVL0216",10,12,11,10,9,1904,921,0,0,"a.sham","no_press",0,"NGW","noGo",1,182,"3",6,"neutral","Win",NA
"503","DIVL0216",10,12,11,10,9,1711,708,0,1,"a.sham","no_press",0,"NGW","noGo",1,183,"3",7,"win","Win","win"
"504","DIVL0216",10,12,11,10,9,2129,561,0,1,"a.sham","no_press",0,"NGW","noGo",1,184,"3",8,"win","Win","win"
"505","DIVL0216",12,12,11,10,9,2083,706,437,1,"a.sham","press",1,"GW","Go",1,185,"3",4,"win","Win","win"
"506","DIVL0216",10,12,11,10,9,1222,646,0,0,"a.sham","no_press",0,"NGW","noGo",1,186,"3",9,"neutral","Win",NA
"507","DIVL0216",10,12,11,10,9,3211,808,0,1,"a.sham","no_press",0,"NGW","noGo",1,187,"3",10,"win","Win","win"
"508","DIVL0216",12,12,11,10,9,2383,756,495,1,"a.sham","press",1,"GW","Go",1,188,"3",5,"win","Win","win"
"509","DIVL0216",12,12,11,10,9,2687,927,439,1,"a.sham","press",1,"GW","Go",1,189,"3",6,"win","Win","win"
"510","DIVL0216",10,12,11,10,9,1550,961,0,1,"a.sham","no_press",0,"NGW","noGo",1,190,"3",11,"win","Win","win"
"511","DIVL0216",11,12,11,10,9,2737,762,0,-1,"a.sham","no_press",0,"GAL","Go",0,191,"3",5,"lose","Avoid","lose"
"512","DIVL0216",11,12,11,10,9,1306,776,540,-1,"a.sham","press",1,"GAL","Go",1,192,"3",6,"lose","Avoid","lose"
"513","DIVL0216",11,12,11,10,9,1629,873,426,0,"a.sham","press",1,"GAL","Go",1,193,"3",7,"neutral","Avoid",NA
"514","DIVL0216",9,12,11,10,9,1513,835,0,-1,"a.sham","no_press",0,"NGL","noGo",1,194,"3",10,"lose","Avoid","lose"
"515","DIVL0216",11,12,11,10,9,1180,908,525,0,"a.sham","press",1,"GAL","Go",1,195,"3",8,"neutral","Avoid",NA
"516","DIVL0216",12,12,11,10,9,1774,866,459,1,"a.sham","press",1,"GW","Go",1,196,"3",7,"win","Win","win"
"517","DIVL0216",10,12,11,10,9,1742,747,0,1,"a.sham","no_press",0,"NGW","noGo",1,197,"3",12,"win","Win","win"
"518","DIVL0216",11,12,11,10,9,2493,634,522,-1,"a.sham","press",1,"GAL","Go",1,198,"3",9,"lose","Avoid","lose"
"519","DIVL0216",9,12,11,10,9,1804,762,0,0,"a.sham","no_press",0,"NGL","noGo",1,199,"3",11,"neutral","Avoid",NA
"520","DIVL0216",12,12,11,10,9,1659,735,385,1,"a.sham","press",1,"GW","Go",1,200,"3",8,"win","Win","win"
"521","DIVL0216",9,12,11,10,9,1367,929,0,0,"a.sham","no_press",0,"NGL","noGo",1,201,"3",12,"neutral","Avoid",NA
"522","DIVL0216",11,12,11,10,9,1522,587,469,-1,"a.sham","press",1,"GAL","Go",1,202,"3",10,"lose","Avoid","lose"
"523","DIVL0216",12,12,11,10,9,2579,722,470,1,"a.sham","press",1,"GW","Go",1,203,"3",9,"win","Win","win"
"524","DIVL0216",10,12,11,10,9,2394,575,0,0,"a.sham","no_press",0,"NGW","noGo",1,204,"3",13,"neutral","Win",NA
"525","DIVL0216",11,12,11,10,9,1260,744,438,0,"a.sham","press",1,"GAL","Go",1,205,"3",11,"neutral","Avoid",NA
"526","DIVL0216",12,12,11,10,9,1638,587,395,0,"a.sham","press",1,"GW","Go",1,206,"3",10,"neutral","Win",NA
"527","DIVL0216",11,12,11,10,9,2093,614,460,0,"a.sham","press",1,"GAL","Go",1,207,"3",12,"neutral","Avoid",NA
"528","DIVL0216",11,12,11,10,9,1772,900,575,0,"a.sham","press",1,"GAL","Go",1,208,"3",13,"neutral","Avoid",NA
"529","DIVL0216",9,12,11,10,9,2300,979,0,0,"a.sham","no_press",0,"NGL","noGo",1,209,"3",13,"neutral","Avoid",NA
"530","DIVL0216",11,12,11,10,9,1265,790,354,0,"a.sham","press",1,"GAL","Go",1,210,"3",14,"neutral","Avoid",NA
"531","DIVL0216",12,12,11,10,9,1564,786,408,1,"a.sham","press",1,"GW","Go",1,211,"3",11,"win","Win","win"
"532","DIVL0216",9,12,11,10,9,1929,602,0,0,"a.sham","no_press",0,"NGL","noGo",1,212,"3",14,"neutral","Avoid",NA
"533","DIVL0216",11,12,11,10,9,2559,936,431,0,"a.sham","press",1,"GAL","Go",1,213,"3",15,"neutral","Avoid",NA
"534","DIVL0216",9,12,11,10,9,2164,681,0,0,"a.sham","no_press",0,"NGL","noGo",1,214,"3",15,"neutral","Avoid",NA
"535","DIVL0216",12,12,11,10,9,2550,673,391,1,"a.sham","press",1,"GW","Go",1,215,"3",12,"win","Win","win"
"536","DIVL0216",10,12,11,10,9,1259,775,0,1,"a.sham","no_press",0,"NGW","noGo",1,216,"3",14,"win","Win","win"
"537","DIVL0216",10,12,11,10,9,2125,783,0,1,"a.sham","no_press",0,"NGW","noGo",1,217,"3",15,"win","Win","win"
"538","DIVL0216",9,12,11,10,9,1892,763,0,0,"a.sham","no_press",0,"NGL","noGo",1,218,"3",16,"neutral","Avoid",NA
"539","DIVL0216",11,12,11,10,9,2923,970,425,0,"a.sham","press",1,"GAL","Go",1,219,"3",16,"neutral","Avoid",NA
"540","DIVL0216",9,12,11,10,9,2297,884,0,0,"a.sham","no_press",0,"NGL","noGo",1,220,"3",17,"neutral","Avoid",NA
"541","DIVL0216",11,12,11,10,9,1835,770,378,0,"a.sham","press",1,"GAL","Go",1,221,"3",17,"neutral","Avoid",NA
"542","DIVL0216",12,12,11,10,9,2199,881,440,1,"a.sham","press",1,"GW","Go",1,222,"3",13,"win","Win","win"
"543","DIVL0216",12,12,11,10,9,2330,567,385,1,"a.sham","press",1,"GW","Go",1,223,"3",14,"win","Win","win"
"544","DIVL0216",12,12,11,10,9,2208,988,345,0,"a.sham","press",1,"GW","Go",1,224,"3",15,"neutral","Win",NA
"545","DIVL0216",12,12,11,10,9,1433,895,363,1,"a.sham","press",1,"GW","Go",1,225,"3",16,"win","Win","win"
"546","DIVL0216",11,12,11,10,9,1819,824,455,0,"a.sham","press",1,"GAL","Go",1,226,"3",18,"neutral","Avoid",NA
"547","DIVL0216",12,12,11,10,9,1807,531,392,1,"a.sham","press",1,"GW","Go",1,227,"3",17,"win","Win","win"
"548","DIVL0216",12,12,11,10,9,3457,922,394,0,"a.sham","press",1,"GW","Go",1,228,"3",18,"neutral","Win",NA
"549","DIVL0216",9,12,11,10,9,1933,747,0,0,"a.sham","no_press",0,"NGL","noGo",1,229,"3",18,"neutral","Avoid",NA
"550","DIVL0216",11,12,11,10,9,2343,526,463,0,"a.sham","press",1,"GAL","Go",1,230,"3",19,"neutral","Avoid",NA
"551","DIVL0216",10,12,11,10,9,1873,732,0,1,"a.sham","no_press",0,"NGW","noGo",1,231,"3",16,"win","Win","win"
"552","DIVL0216",10,12,11,10,9,1551,840,0,1,"a.sham","no_press",0,"NGW","noGo",1,232,"3",17,"win","Win","win"
"553","DIVL0216",12,12,11,10,9,2071,799,428,1,"a.sham","press",1,"GW","Go",1,233,"3",19,"win","Win","win"
"554","DIVL0216",12,12,11,10,9,1305,715,351,1,"a.sham","press",1,"GW","Go",1,234,"3",20,"win","Win","win"
"555","DIVL0216",11,12,11,10,9,2022,531,364,0,"a.sham","press",1,"GAL","Go",1,235,"3",20,"neutral","Avoid",NA
"556","DIVL0216",9,12,11,10,9,2527,907,0,-1,"a.sham","no_press",0,"NGL","noGo",1,236,"3",19,"lose","Avoid","lose"
"557","DIVL0216",10,12,11,10,9,1801,644,0,1,"a.sham","no_press",0,"NGW","noGo",1,237,"3",18,"win","Win","win"
"558","DIVL0216",10,12,11,10,9,1485,550,0,1,"a.sham","no_press",0,"NGW","noGo",1,238,"3",19,"win","Win","win"
"559","DIVL0216",9,12,11,10,9,2134,801,0,0,"a.sham","no_press",0,"NGL","noGo",1,239,"3",20,"neutral","Avoid",NA
"560","DIVL0216",10,12,11,10,9,1418,685,0,1,"a.sham","no_press",0,"NGW","noGo",1,240,"3",20,"win","Win","win"
"561","DIVL0216",14,14,13,16,15,2415,519,756,1,"a.sham","press",1,"GW","Go",1,241,"4",1,"win","Win","win"
"562","DIVL0216",15,14,13,16,15,1965,869,540,-1,"a.sham","press",1,"NGL","noGo",0,242,"4",1,"lose","Avoid","lose"
"563","DIVL0216",14,14,13,16,15,2186,553,577,1,"a.sham","press",1,"GW","Go",1,243,"4",2,"win","Win","win"
"564","DIVL0216",15,14,13,16,15,1925,693,0,0,"a.sham","no_press",0,"NGL","noGo",1,244,"4",2,"neutral","Avoid",NA
"565","DIVL0216",13,14,13,16,15,2174,582,630,0,"a.sham","press",1,"GAL","Go",1,245,"4",1,"neutral","Avoid",NA
"566","DIVL0216",15,14,13,16,15,2284,702,0,0,"a.sham","no_press",0,"NGL","noGo",1,246,"4",3,"neutral","Avoid",NA
"567","DIVL0216",15,14,13,16,15,1996,791,0,0,"a.sham","no_press",0,"NGL","noGo",1,247,"4",4,"neutral","Avoid",NA
"568","DIVL0216",15,14,13,16,15,2671,632,0,0,"a.sham","no_press",0,"NGL","noGo",1,248,"4",5,"neutral","Avoid",NA
"569","DIVL0216",14,14,13,16,15,2525,637,428,1,"a.sham","press",1,"GW","Go",1,249,"4",3,"win","Win","win"
"570","DIVL0216",13,14,13,16,15,1668,620,0,-1,"a.sham","no_press",0,"GAL","Go",0,250,"4",2,"lose","Avoid","lose"
"571","DIVL0216",13,14,13,16,15,2241,762,372,0,"a.sham","press",1,"GAL","Go",1,251,"4",3,"neutral","Avoid",NA
"572","DIVL0216",16,14,13,16,15,1708,505,0,1,"a.sham","no_press",0,"NGW","noGo",1,252,"4",1,"win","Win","win"
"573","DIVL0216",13,14,13,16,15,2602,953,538,0,"a.sham","press",1,"GAL","Go",1,253,"4",4,"neutral","Avoid",NA
"574","DIVL0216",16,14,13,16,15,1418,530,0,1,"a.sham","no_press",0,"NGW","noGo",1,254,"4",2,"win","Win","win"
"575","DIVL0216",16,14,13,16,15,1510,811,0,1,"a.sham","no_press",0,"NGW","noGo",1,255,"4",3,"win","Win","win"
"576","DIVL0216",16,14,13,16,15,1800,858,0,0,"a.sham","no_press",0,"NGW","noGo",1,256,"4",4,"neutral","Win",NA
"577","DIVL0216",15,14,13,16,15,2115,662,0,0,"a.sham","no_press",0,"NGL","noGo",1,257,"4",6,"neutral","Avoid",NA
"578","DIVL0216",16,14,13,16,15,2328,934,0,1,"a.sham","no_press",0,"NGW","noGo",1,258,"4",5,"win","Win","win"
"579","DIVL0216",16,14,13,16,15,3045,898,0,1,"a.sham","no_press",0,"NGW","noGo",1,259,"4",6,"win","Win","win"
"580","DIVL0216",14,14,13,16,15,2031,695,529,0,"a.sham","press",1,"GW","Go",1,260,"4",4,"neutral","Win",NA
"581","DIVL0216",15,14,13,16,15,2085,844,0,0,"a.sham","no_press",0,"NGL","noGo",1,261,"4",7,"neutral","Avoid",NA
"582","DIVL0216",14,14,13,16,15,1745,817,542,1,"a.sham","press",1,"GW","Go",1,262,"4",5,"win","Win","win"
"583","DIVL0216",16,14,13,16,15,2084,766,0,1,"a.sham","no_press",0,"NGW","noGo",1,263,"4",7,"win","Win","win"
"584","DIVL0216",16,14,13,16,15,1704,970,0,1,"a.sham","no_press",0,"NGW","noGo",1,264,"4",8,"win","Win","win"
"585","DIVL0216",14,14,13,16,15,2038,512,449,1,"a.sham","press",1,"GW","Go",1,265,"4",6,"win","Win","win"
"586","DIVL0216",14,14,13,16,15,1935,655,426,1,"a.sham","press",1,"GW","Go",1,266,"4",7,"win","Win","win"
"587","DIVL0216",16,14,13,16,15,2434,547,0,1,"a.sham","no_press",0,"NGW","noGo",1,267,"4",9,"win","Win","win"
"588","DIVL0216",13,14,13,16,15,2178,962,540,0,"a.sham","press",1,"GAL","Go",1,268,"4",5,"neutral","Avoid",NA
"589","DIVL0216",15,14,13,16,15,1748,933,0,-1,"a.sham","no_press",0,"NGL","noGo",1,269,"4",8,"lose","Avoid","lose"
"590","DIVL0216",15,14,13,16,15,2687,796,0,0,"a.sham","no_press",0,"NGL","noGo",1,270,"4",9,"neutral","Avoid",NA
"591","DIVL0216",16,14,13,16,15,1834,770,0,1,"a.sham","no_press",0,"NGW","noGo",1,271,"4",10,"win","Win","win"
"592","DIVL0216",13,14,13,16,15,1722,875,465,0,"a.sham","press",1,"GAL","Go",1,272,"4",6,"neutral","Avoid",NA
"593","DIVL0216",16,14,13,16,15,1494,919,0,1,"a.sham","no_press",0,"NGW","noGo",1,273,"4",11,"win","Win","win"
"594","DIVL0216",16,14,13,16,15,2267,928,0,1,"a.sham","no_press",0,"NGW","noGo",1,274,"4",12,"win","Win","win"
"595","DIVL0216",15,14,13,16,15,2134,755,0,0,"a.sham","no_press",0,"NGL","noGo",1,275,"4",10,"neutral","Avoid",NA
"596","DIVL0216",13,14,13,16,15,2100,513,624,0,"a.sham","press",1,"GAL","Go",1,276,"4",7,"neutral","Avoid",NA
"597","DIVL0216",14,14,13,16,15,1448,545,476,1,"a.sham","press",1,"GW","Go",1,277,"4",8,"win","Win","win"
"598","DIVL0216",14,14,13,16,15,2394,690,417,1,"a.sham","press",1,"GW","Go",1,278,"4",9,"win","Win","win"
"599","DIVL0216",13,14,13,16,15,2305,559,479,0,"a.sham","press",1,"GAL","Go",1,279,"4",8,"neutral","Avoid",NA
"600","DIVL0216",16,14,13,16,15,1753,645,418,1,"a.sham","press",1,"NGW","noGo",0,280,"4",13,"win","Win","win"
"601","DIVL0216",15,14,13,16,15,2211,954,0,0,"a.sham","no_press",0,"NGL","noGo",1,281,"4",11,"neutral","Avoid",NA
"602","DIVL0216",15,14,13,16,15,1563,766,0,-1,"a.sham","no_press",0,"NGL","noGo",1,282,"4",12,"lose","Avoid","lose"
"603","DIVL0216",16,14,13,16,15,1649,766,0,1,"a.sham","no_press",0,"NGW","noGo",1,283,"4",14,"win","Win","win"
"604","DIVL0216",15,14,13,16,15,2816,706,0,0,"a.sham","no_press",0,"NGL","noGo",1,284,"4",13,"neutral","Avoid",NA
"605","DIVL0216",13,14,13,16,15,1510,920,535,-1,"a.sham","press",1,"GAL","Go",1,285,"4",9,"lose","Avoid","lose"
"606","DIVL0216",13,14,13,16,15,2047,904,466,0,"a.sham","press",1,"GAL","Go",1,286,"4",10,"neutral","Avoid",NA
"607","DIVL0216",13,14,13,16,15,3021,503,397,-1,"a.sham","press",1,"GAL","Go",1,287,"4",11,"lose","Avoid","lose"
"608","DIVL0216",15,14,13,16,15,1744,548,0,0,"a.sham","no_press",0,"NGL","noGo",1,288,"4",14,"neutral","Avoid",NA
"609","DIVL0216",13,14,13,16,15,1658,554,342,0,"a.sham","press",1,"GAL","Go",1,289,"4",12,"neutral","Avoid",NA
"610","DIVL0216",14,14,13,16,15,1949,914,430,0,"a.sham","press",1,"GW","Go",1,290,"4",10,"neutral","Win",NA
"611","DIVL0216",16,14,13,16,15,1759,730,0,1,"a.sham","no_press",0,"NGW","noGo",1,291,"4",15,"win","Win","win"
"612","DIVL0216",14,14,13,16,15,2722,806,392,0,"a.sham","press",1,"GW","Go",1,292,"4",11,"neutral","Win",NA
"613","DIVL0216",13,14,13,16,15,1951,861,496,0,"a.sham","press",1,"GAL","Go",1,293,"4",13,"neutral","Avoid",NA
"614","DIVL0216",14,14,13,16,15,1817,904,387,1,"a.sham","press",1,"GW","Go",1,294,"4",12,"win","Win","win"
"615","DIVL0216",15,14,13,16,15,1918,811,0,0,"a.sham","no_press",0,"NGL","noGo",1,295,"4",15,"neutral","Avoid",NA
"616","DIVL0216",15,14,13,16,15,1783,930,0,0,"a.sham","no_press",0,"NGL","noGo",1,296,"4",16,"neutral","Avoid",NA
"617","DIVL0216",15,14,13,16,15,1000,717,0,0,"a.sham","no_press",0,"NGL","noGo",1,297,"4",17,"neutral","Avoid",NA
"618","DIVL0216",15,14,13,16,15,2184,505,0,-1,"a.sham","no_press",0,"NGL","noGo",1,298,"4",18,"lose","Avoid","lose"
"619","DIVL0216",14,14,13,16,15,2327,518,449,1,"a.sham","press",1,"GW","Go",1,299,"4",13,"win","Win","win"
"620","DIVL0216",13,14,13,16,15,1916,873,539,0,"a.sham","press",1,"GAL","Go",1,300,"4",14,"neutral","Avoid",NA
"621","DIVL0216",15,14,13,16,15,1000,774,0,-1,"a.sham","no_press",0,"NGL","noGo",1,301,"4",19,"lose","Avoid","lose"
"622","DIVL0216",14,14,13,16,15,1000,561,464,1,"a.sham","press",1,"GW","Go",1,302,"4",14,"win","Win","win"
"623","DIVL0216",16,14,13,16,15,2223,597,0,0,"a.sham","no_press",0,"NGW","noGo",1,303,"4",16,"neutral","Win",NA
"624","DIVL0216",13,14,13,16,15,1852,714,681,0,"a.sham","press",1,"GAL","Go",1,304,"4",15,"neutral","Avoid",NA
"625","DIVL0216",13,14,13,16,15,2973,614,432,-1,"a.sham","press",1,"GAL","Go",1,305,"4",16,"lose","Avoid","lose"
"626","DIVL0216",15,14,13,16,15,1000,534,0,0,"a.sham","no_press",0,"NGL","noGo",1,306,"4",20,"neutral","Avoid",NA
"627","DIVL0216",14,14,13,16,15,2498,777,426,1,"a.sham","press",1,"GW","Go",1,307,"4",15,"win","Win","win"
"628","DIVL0216",13,14,13,16,15,1548,827,438,0,"a.sham","press",1,"GAL","Go",1,308,"4",17,"neutral","Avoid",NA
"629","DIVL0216",16,14,13,16,15,2518,720,0,0,"a.sham","no_press",0,"NGW","noGo",1,309,"4",17,"neutral","Win",NA
"630","DIVL0216",13,14,13,16,15,1946,528,508,0,"a.sham","press",1,"GAL","Go",1,310,"4",18,"neutral","Avoid",NA
"631","DIVL0216",16,14,13,16,15,1693,890,0,1,"a.sham","no_press",0,"NGW","noGo",1,311,"4",18,"win","Win","win"
"632","DIVL0216",14,14,13,16,15,2205,830,489,1,"a.sham","press",1,"GW","Go",1,312,"4",16,"win","Win","win"
"633","DIVL0216",14,14,13,16,15,1482,693,480,1,"a.sham","press",1,"GW","Go",1,313,"4",17,"win","Win","win"
"634","DIVL0216",16,14,13,16,15,2314,738,0,1,"a.sham","no_press",0,"NGW","noGo",1,314,"4",19,"win","Win","win"
"635","DIVL0216",13,14,13,16,15,2393,773,443,0,"a.sham","press",1,"GAL","Go",1,315,"4",19,"neutral","Avoid",NA
"636","DIVL0216",13,14,13,16,15,2410,646,419,0,"a.sham","press",1,"GAL","Go",1,316,"4",20,"neutral","Avoid",NA
"637","DIVL0216",14,14,13,16,15,1202,606,530,0,"a.sham","press",1,"GW","Go",1,317,"4",18,"neutral","Win",NA
"638","DIVL0216",16,14,13,16,15,2235,913,0,1,"a.sham","no_press",0,"NGW","noGo",1,318,"4",20,"win","Win","win"
"639","DIVL0216",14,14,13,16,15,2411,650,450,1,"a.sham","press",1,"GW","Go",1,319,"4",19,"win","Win","win"
"640","DIVL0216",14,14,13,16,15,2475,986,423,1,"a.sham","press",1,"GW","Go",1,320,"4",20,"win","Win","win"
"641","EEMR0429",2,4,3,2,1,2251,782,0,1,"a.sham","no_press",0,"NGW","noGo",1,1,"1",1,"win","Win","win"
"642","EEMR0429",3,4,3,2,1,1988,883,0,-1,"a.sham","no_press",0,"GAL","Go",0,2,"1",1,"lose","Avoid","lose"
"643","EEMR0429",1,4,3,2,1,2324,962,0,0,"a.sham","no_press",0,"NGL","noGo",1,3,"1",1,"neutral","Avoid",NA
"644","EEMR0429",4,4,3,2,1,1743,914,0,0,"a.sham","no_press",0,"GW","Go",0,4,"1",1,"neutral","Win",NA
"645","EEMR0429",1,4,3,2,1,2039,832,0,-1,"a.sham","no_press",0,"NGL","noGo",1,5,"1",2,"lose","Avoid","lose"
"646","EEMR0429",2,4,3,2,1,1573,910,0,1,"a.sham","no_press",0,"NGW","noGo",1,6,"1",2,"win","Win","win"
"647","EEMR0429",4,4,3,2,1,1246,880,0,0,"a.sham","no_press",0,"GW","Go",0,7,"1",2,"neutral","Win",NA
"648","EEMR0429",3,4,3,2,1,2671,662,652,0,"a.sham","press",1,"GAL","Go",1,8,"1",2,"neutral","Avoid",NA
"649","EEMR0429",3,4,3,2,1,1510,891,751,0,"a.sham","press",1,"GAL","Go",1,9,"1",3,"neutral","Avoid",NA
"650","EEMR0429",2,4,3,2,1,2065,935,0,1,"a.sham","no_press",0,"NGW","noGo",1,10,"1",3,"win","Win","win"
"651","EEMR0429",1,4,3,2,1,2243,828,602,-1,"a.sham","press",1,"NGL","noGo",0,11,"1",3,"lose","Avoid","lose"
"652","EEMR0429",4,4,3,2,1,1861,788,0,1,"a.sham","no_press",0,"GW","Go",0,12,"1",3,"win","Win","win"
"653","EEMR0429",1,4,3,2,1,1474,864,365,-1,"a.sham","press",1,"NGL","noGo",0,13,"1",4,"lose","Avoid","lose"
"654","EEMR0429",3,4,3,2,1,2151,543,541,0,"a.sham","press",1,"GAL","Go",1,14,"1",4,"neutral","Avoid",NA
"655","EEMR0429",4,4,3,2,1,1610,554,0,0,"a.sham","no_press",0,"GW","Go",0,15,"1",4,"neutral","Win",NA
"656","EEMR0429",2,4,3,2,1,1212,735,0,0,"a.sham","no_press",0,"NGW","noGo",1,16,"1",4,"neutral","Win",NA
"657","EEMR0429",2,4,3,2,1,1286,960,0,1,"a.sham","no_press",0,"NGW","noGo",1,17,"1",5,"win","Win","win"
"658","EEMR0429",2,4,3,2,1,2374,521,0,1,"a.sham","no_press",0,"NGW","noGo",1,18,"1",6,"win","Win","win"
"659","EEMR0429",1,4,3,2,1,1478,615,713,-1,"a.sham","press",1,"NGL","noGo",0,19,"1",5,"lose","Avoid","lose"
"660","EEMR0429",4,4,3,2,1,2678,851,0,0,"a.sham","no_press",0,"GW","Go",0,20,"1",5,"neutral","Win",NA
"661","EEMR0429",3,4,3,2,1,2305,710,446,0,"a.sham","press",1,"GAL","Go",1,21,"1",5,"neutral","Avoid",NA
"662","EEMR0429",4,4,3,2,1,1386,709,0,0,"a.sham","no_press",0,"GW","Go",0,22,"1",6,"neutral","Win",NA
"663","EEMR0429",2,4,3,2,1,2121,706,0,1,"a.sham","no_press",0,"NGW","noGo",1,23,"1",7,"win","Win","win"
"664","EEMR0429",2,4,3,2,1,2040,961,0,1,"a.sham","no_press",0,"NGW","noGo",1,24,"1",8,"win","Win","win"
"665","EEMR0429",1,4,3,2,1,1439,547,0,0,"a.sham","no_press",0,"NGL","noGo",1,25,"1",6,"neutral","Avoid",NA
"666","EEMR0429",1,4,3,2,1,1755,763,0,0,"a.sham","no_press",0,"NGL","noGo",1,26,"1",7,"neutral","Avoid",NA
"667","EEMR0429",1,4,3,2,1,2202,580,0,-1,"a.sham","no_press",0,"NGL","noGo",1,27,"1",8,"lose","Avoid","lose"
"668","EEMR0429",1,4,3,2,1,2295,841,0,0,"a.sham","no_press",0,"NGL","noGo",1,28,"1",9,"neutral","Avoid",NA
"669","EEMR0429",3,4,3,2,1,1485,870,535,-1,"a.sham","press",1,"GAL","Go",1,29,"1",6,"lose","Avoid","lose"
"670","EEMR0429",4,4,3,2,1,3219,927,0,0,"a.sham","no_press",0,"GW","Go",0,30,"1",7,"neutral","Win",NA
"671","EEMR0429",4,4,3,2,1,2572,724,0,0,"a.sham","no_press",0,"GW","Go",0,31,"1",8,"neutral","Win",NA
"672","EEMR0429",1,4,3,2,1,2140,728,0,0,"a.sham","no_press",0,"NGL","noGo",1,32,"1",10,"neutral","Avoid",NA
"673","EEMR0429",2,4,3,2,1,2822,752,0,1,"a.sham","no_press",0,"NGW","noGo",1,33,"1",9,"win","Win","win"
"674","EEMR0429",4,4,3,2,1,1600,634,0,1,"a.sham","no_press",0,"GW","Go",0,34,"1",9,"win","Win","win"
"675","EEMR0429",3,4,3,2,1,1874,938,387,0,"a.sham","press",1,"GAL","Go",1,35,"1",7,"neutral","Avoid",NA
"676","EEMR0429",2,4,3,2,1,1539,816,0,0,"a.sham","no_press",0,"NGW","noGo",1,36,"1",10,"neutral","Win",NA
"677","EEMR0429",3,4,3,2,1,1851,779,0,-1,"a.sham","no_press",0,"GAL","Go",0,37,"1",8,"lose","Avoid","lose"
"678","EEMR0429",2,4,3,2,1,1782,905,0,1,"a.sham","no_press",0,"NGW","noGo",1,38,"1",11,"win","Win","win"
"679","EEMR0429",3,4,3,2,1,1874,644,545,-1,"a.sham","press",1,"GAL","Go",1,39,"1",9,"lose","Avoid","lose"
"680","EEMR0429",2,4,3,2,1,2527,615,0,1,"a.sham","no_press",0,"NGW","noGo",1,40,"1",12,"win","Win","win"
"681","EEMR0429",4,4,3,2,1,1638,854,0,1,"a.sham","no_press",0,"GW","Go",0,41,"1",10,"win","Win","win"
"682","EEMR0429",1,4,3,2,1,1985,997,0,0,"a.sham","no_press",0,"NGL","noGo",1,42,"1",11,"neutral","Avoid",NA
"683","EEMR0429",3,4,3,2,1,2592,877,495,-1,"a.sham","press",1,"GAL","Go",1,43,"1",10,"lose","Avoid","lose"
"684","EEMR0429",2,4,3,2,1,1871,573,0,1,"a.sham","no_press",0,"NGW","noGo",1,44,"1",13,"win","Win","win"
"685","EEMR0429",1,4,3,2,1,3539,791,0,0,"a.sham","no_press",0,"NGL","noGo",1,45,"1",12,"neutral","Avoid",NA
"686","EEMR0429",1,4,3,2,1,1576,989,0,0,"a.sham","no_press",0,"NGL","noGo",1,46,"1",13,"neutral","Avoid",NA
"687","EEMR0429",3,4,3,2,1,2420,685,424,0,"a.sham","press",1,"GAL","Go",1,47,"1",11,"neutral","Avoid",NA
"688","EEMR0429",3,4,3,2,1,2298,933,494,0,"a.sham","press",1,"GAL","Go",1,48,"1",12,"neutral","Avoid",NA
"689","EEMR0429",1,4,3,2,1,1979,853,0,0,"a.sham","no_press",0,"NGL","noGo",1,49,"1",14,"neutral","Avoid",NA
"690","EEMR0429",3,4,3,2,1,2572,547,445,0,"a.sham","press",1,"GAL","Go",1,50,"1",13,"neutral","Avoid",NA
"691","EEMR0429",3,4,3,2,1,1504,541,451,0,"a.sham","press",1,"GAL","Go",1,51,"1",14,"neutral","Avoid",NA
"692","EEMR0429",3,4,3,2,1,1779,512,374,0,"a.sham","press",1,"GAL","Go",1,52,"1",15,"neutral","Avoid",NA
"693","EEMR0429",1,4,3,2,1,1000,904,0,-1,"a.sham","no_press",0,"NGL","noGo",1,53,"1",15,"lose","Avoid","lose"
"694","EEMR0429",4,4,3,2,1,2180,898,0,0,"a.sham","no_press",0,"GW","Go",0,54,"1",11,"neutral","Win",NA
"695","EEMR0429",2,4,3,2,1,1720,721,0,1,"a.sham","no_press",0,"NGW","noGo",1,55,"1",14,"win","Win","win"
"696","EEMR0429",2,4,3,2,1,2009,805,0,1,"a.sham","no_press",0,"NGW","noGo",1,56,"1",15,"win","Win","win"
"697","EEMR0429",4,4,3,2,1,1892,631,0,0,"a.sham","no_press",0,"GW","Go",0,57,"1",12,"neutral","Win",NA
"698","EEMR0429",4,4,3,2,1,2649,768,0,0,"a.sham","no_press",0,"GW","Go",0,58,"1",13,"neutral","Win",NA
"699","EEMR0429",2,4,3,2,1,1330,510,0,0,"a.sham","no_press",0,"NGW","noGo",1,59,"1",16,"neutral","Win",NA
"700","EEMR0429",2,4,3,2,1,2587,657,0,1,"a.sham","no_press",0,"NGW","noGo",1,60,"1",17,"win","Win","win"
"701","EEMR0429",3,4,3,2,1,2276,750,481,-1,"a.sham","press",1,"GAL","Go",1,61,"1",16,"lose","Avoid","lose"
"702","EEMR0429",2,4,3,2,1,1469,615,0,1,"a.sham","no_press",0,"NGW","noGo",1,62,"1",18,"win","Win","win"
"703","EEMR0429",1,4,3,2,1,1960,941,0,0,"a.sham","no_press",0,"NGL","noGo",1,63,"1",16,"neutral","Avoid",NA
"704","EEMR0429",2,4,3,2,1,2355,967,0,0,"a.sham","no_press",0,"NGW","noGo",1,64,"1",19,"neutral","Win",NA
"705","EEMR0429",3,4,3,2,1,2599,699,446,0,"a.sham","press",1,"GAL","Go",1,65,"1",17,"neutral","Avoid",NA
"706","EEMR0429",4,4,3,2,1,3460,914,0,0,"a.sham","no_press",0,"GW","Go",0,66,"1",14,"neutral","Win",NA
"707","EEMR0429",3,4,3,2,1,1522,525,445,0,"a.sham","press",1,"GAL","Go",1,67,"1",18,"neutral","Avoid",NA
"708","EEMR0429",1,4,3,2,1,1502,567,0,0,"a.sham","no_press",0,"NGL","noGo",1,68,"1",17,"neutral","Avoid",NA
"709","EEMR0429",3,4,3,2,1,2422,994,506,0,"a.sham","press",1,"GAL","Go",1,69,"1",19,"neutral","Avoid",NA
"710","EEMR0429",4,4,3,2,1,1733,695,0,0,"a.sham","no_press",0,"GW","Go",0,70,"1",15,"neutral","Win",NA
"711","EEMR0429",4,4,3,2,1,1000,985,0,0,"a.sham","no_press",0,"GW","Go",0,71,"1",16,"neutral","Win",NA
"712","EEMR0429",4,4,3,2,1,1268,557,0,0,"a.sham","no_press",0,"GW","Go",0,72,"1",17,"neutral","Win",NA
"713","EEMR0429",4,4,3,2,1,1989,867,0,0,"a.sham","no_press",0,"GW","Go",0,73,"1",18,"neutral","Win",NA
"714","EEMR0429",1,4,3,2,1,2403,745,0,0,"a.sham","no_press",0,"NGL","noGo",1,74,"1",18,"neutral","Avoid",NA
"715","EEMR0429",4,4,3,2,1,2583,617,0,0,"a.sham","no_press",0,"GW","Go",0,75,"1",19,"neutral","Win",NA
"716","EEMR0429",1,4,3,2,1,2147,753,0,0,"a.sham","no_press",0,"NGL","noGo",1,76,"1",19,"neutral","Avoid",NA
"717","EEMR0429",4,4,3,2,1,2354,717,0,1,"a.sham","no_press",0,"GW","Go",0,77,"1",20,"win","Win","win"
"718","EEMR0429",2,4,3,2,1,1770,920,0,1,"a.sham","no_press",0,"NGW","noGo",1,78,"1",20,"win","Win","win"
"719","EEMR0429",3,4,3,2,1,2247,677,722,0,"a.sham","press",1,"GAL","Go",1,79,"1",20,"neutral","Avoid",NA
"720","EEMR0429",1,4,3,2,1,1614,899,0,0,"a.sham","no_press",0,"NGL","noGo",1,80,"1",20,"neutral","Avoid",NA
"721","EEMR0429",5,8,5,6,7,2107,856,0,-1,"a.sham","no_press",0,"GAL","Go",0,81,"2",1,"lose","Avoid","lose"
"722","EEMR0429",5,8,5,6,7,1710,976,790,0,"a.sham","press",1,"GAL","Go",1,82,"2",2,"neutral","Avoid",NA
"723","EEMR0429",7,8,5,6,7,3107,772,0,0,"a.sham","no_press",0,"NGL","noGo",1,83,"2",1,"neutral","Avoid",NA
"724","EEMR0429",7,8,5,6,7,2074,588,0,0,"a.sham","no_press",0,"NGL","noGo",1,84,"2",2,"neutral","Avoid",NA
"725","EEMR0429",8,8,5,6,7,1636,628,0,0,"a.sham","no_press",0,"GW","Go",0,85,"2",1,"neutral","Win",NA
"726","EEMR0429",7,8,5,6,7,1823,990,0,0,"a.sham","no_press",0,"NGL","noGo",1,86,"2",3,"neutral","Avoid",NA
"727","EEMR0429",6,8,5,6,7,1480,836,0,1,"a.sham","no_press",0,"NGW","noGo",1,87,"2",1,"win","Win","win"
"728","EEMR0429",5,8,5,6,7,1611,772,562,0,"a.sham","press",1,"GAL","Go",1,88,"2",3,"neutral","Avoid",NA
"729","EEMR0429",7,8,5,6,7,2564,678,0,-1,"a.sham","no_press",0,"NGL","noGo",1,89,"2",4,"lose","Avoid","lose"
"730","EEMR0429",5,8,5,6,7,1379,839,656,0,"a.sham","press",1,"GAL","Go",1,90,"2",4,"neutral","Avoid",NA
"731","EEMR0429",5,8,5,6,7,1400,730,690,0,"a.sham","press",1,"GAL","Go",1,91,"2",5,"neutral","Avoid",NA
"732","EEMR0429",6,8,5,6,7,1510,573,0,1,"a.sham","no_press",0,"NGW","noGo",1,92,"2",2,"win","Win","win"
"733","EEMR0429",8,8,5,6,7,1528,542,0,0,"a.sham","no_press",0,"GW","Go",0,93,"2",2,"neutral","Win",NA
"734","EEMR0429",7,8,5,6,7,2173,931,0,0,"a.sham","no_press",0,"NGL","noGo",1,94,"2",5,"neutral","Avoid",NA
"735","EEMR0429",5,8,5,6,7,3147,561,558,-1,"a.sham","press",1,"GAL","Go",1,95,"2",6,"lose","Avoid","lose"
"736","EEMR0429",6,8,5,6,7,1967,608,0,1,"a.sham","no_press",0,"NGW","noGo",1,96,"2",3,"win","Win","win"
"737","EEMR0429",8,8,5,6,7,1526,936,0,0,"a.sham","no_press",0,"GW","Go",0,97,"2",3,"neutral","Win",NA
"738","EEMR0429",7,8,5,6,7,2211,932,0,0,"a.sham","no_press",0,"NGL","noGo",1,98,"2",6,"neutral","Avoid",NA
"739","EEMR0429",6,8,5,6,7,1792,500,0,1,"a.sham","no_press",0,"NGW","noGo",1,99,"2",4,"win","Win","win"
"740","EEMR0429",8,8,5,6,7,2020,758,0,0,"a.sham","no_press",0,"GW","Go",0,100,"2",4,"neutral","Win",NA
"741","EEMR0429",6,8,5,6,7,1841,800,0,1,"a.sham","no_press",0,"NGW","noGo",1,101,"2",5,"win","Win","win"
"742","EEMR0429",7,8,5,6,7,1427,805,0,0,"a.sham","no_press",0,"NGL","noGo",1,102,"2",7,"neutral","Avoid",NA
"743","EEMR0429",6,8,5,6,7,2767,689,0,1,"a.sham","no_press",0,"NGW","noGo",1,103,"2",6,"win","Win","win"
"744","EEMR0429",6,8,5,6,7,2936,611,0,1,"a.sham","no_press",0,"NGW","noGo",1,104,"2",7,"win","Win","win"
"745","EEMR0429",7,8,5,6,7,2958,727,0,0,"a.sham","no_press",0,"NGL","noGo",1,105,"2",8,"neutral","Avoid",NA
"746","EEMR0429",7,8,5,6,7,1666,857,0,-1,"a.sham","no_press",0,"NGL","noGo",1,106,"2",9,"lose","Avoid","lose"
"747","EEMR0429",8,8,5,6,7,2898,732,0,0,"a.sham","no_press",0,"GW","Go",0,107,"2",5,"neutral","Win",NA
"748","EEMR0429",5,8,5,6,7,2442,628,363,-1,"a.sham","press",1,"GAL","Go",1,108,"2",7,"lose","Avoid","lose"
"749","EEMR0429",8,8,5,6,7,2209,529,0,0,"a.sham","no_press",0,"GW","Go",0,109,"2",6,"neutral","Win",NA
"750","EEMR0429",7,8,5,6,7,2365,718,0,0,"a.sham","no_press",0,"NGL","noGo",1,110,"2",10,"neutral","Avoid",NA
"751","EEMR0429",8,8,5,6,7,1833,504,0,0,"a.sham","no_press",0,"GW","Go",0,111,"2",7,"neutral","Win",NA
"752","EEMR0429",6,8,5,6,7,1503,523,0,0,"a.sham","no_press",0,"NGW","noGo",1,112,"2",8,"neutral","Win",NA
"753","EEMR0429",8,8,5,6,7,2054,642,0,0,"a.sham","no_press",0,"GW","Go",0,113,"2",8,"neutral","Win",NA
"754","EEMR0429",6,8,5,6,7,2566,814,0,1,"a.sham","no_press",0,"NGW","noGo",1,114,"2",9,"win","Win","win"
"755","EEMR0429",6,8,5,6,7,2484,935,0,1,"a.sham","no_press",0,"NGW","noGo",1,115,"2",10,"win","Win","win"
"756","EEMR0429",6,8,5,6,7,1368,977,0,1,"a.sham","no_press",0,"NGW","noGo",1,116,"2",11,"win","Win","win"
"757","EEMR0429",6,8,5,6,7,3024,730,0,0,"a.sham","no_press",0,"NGW","noGo",1,117,"2",12,"neutral","Win",NA
"758","EEMR0429",5,8,5,6,7,1205,844,475,0,"a.sham","press",1,"GAL","Go",1,118,"2",8,"neutral","Avoid",NA
"759","EEMR0429",8,8,5,6,7,1544,509,0,1,"a.sham","no_press",0,"GW","Go",0,119,"2",9,"win","Win","win"
"760","EEMR0429",6,8,5,6,7,3367,874,0,1,"a.sham","no_press",0,"NGW","noGo",1,120,"2",13,"win","Win","win"
"761","EEMR0429",8,8,5,6,7,2293,921,0,0,"a.sham","no_press",0,"GW","Go",0,121,"2",10,"neutral","Win",NA
"762","EEMR0429",7,8,5,6,7,2413,912,0,0,"a.sham","no_press",0,"NGL","noGo",1,122,"2",11,"neutral","Avoid",NA
"763","EEMR0429",7,8,5,6,7,2336,709,0,-1,"a.sham","no_press",0,"NGL","noGo",1,123,"2",12,"lose","Avoid","lose"
"764","EEMR0429",8,8,5,6,7,1342,772,0,0,"a.sham","no_press",0,"GW","Go",0,124,"2",11,"neutral","Win",NA
"765","EEMR0429",8,8,5,6,7,2173,601,0,0,"a.sham","no_press",0,"GW","Go",0,125,"2",12,"neutral","Win",NA
"766","EEMR0429",8,8,5,6,7,1922,855,0,1,"a.sham","no_press",0,"GW","Go",0,126,"2",13,"win","Win","win"
"767","EEMR0429",8,8,5,6,7,1782,823,0,0,"a.sham","no_press",0,"GW","Go",0,127,"2",14,"neutral","Win",NA
"768","EEMR0429",6,8,5,6,7,1575,963,0,1,"a.sham","no_press",0,"NGW","noGo",1,128,"2",14,"win","Win","win"
"769","EEMR0429",7,8,5,6,7,3435,943,0,-1,"a.sham","no_press",0,"NGL","noGo",1,129,"2",13,"lose","Avoid","lose"
"770","EEMR0429",6,8,5,6,7,2255,512,0,1,"a.sham","no_press",0,"NGW","noGo",1,130,"2",15,"win","Win","win"
"771","EEMR0429",5,8,5,6,7,2260,530,454,-1,"a.sham","press",1,"GAL","Go",1,131,"2",9,"lose","Avoid","lose"
"772","EEMR0429",5,8,5,6,7,2521,601,368,0,"a.sham","press",1,"GAL","Go",1,132,"2",10,"neutral","Avoid",NA
"773","EEMR0429",5,8,5,6,7,1758,817,480,0,"a.sham","press",1,"GAL","Go",1,133,"2",11,"neutral","Avoid",NA
"774","EEMR0429",7,8,5,6,7,2232,734,0,0,"a.sham","no_press",0,"NGL","noGo",1,134,"2",14,"neutral","Avoid",NA
"775","EEMR0429",8,8,5,6,7,1736,726,0,0,"a.sham","no_press",0,"GW","Go",0,135,"2",15,"neutral","Win",NA
"776","EEMR0429",8,8,5,6,7,1500,664,0,1,"a.sham","no_press",0,"GW","Go",0,136,"2",16,"win","Win","win"
"777","EEMR0429",7,8,5,6,7,1556,648,0,0,"a.sham","no_press",0,"NGL","noGo",1,137,"2",15,"neutral","Avoid",NA
"778","EEMR0429",7,8,5,6,7,3094,954,0,0,"a.sham","no_press",0,"NGL","noGo",1,138,"2",16,"neutral","Avoid",NA
"779","EEMR0429",8,8,5,6,7,1669,944,0,0,"a.sham","no_press",0,"GW","Go",0,139,"2",17,"neutral","Win",NA
"780","EEMR0429",5,8,5,6,7,1811,940,431,0,"a.sham","press",1,"GAL","Go",1,140,"2",12,"neutral","Avoid",NA
"781","EEMR0429",5,8,5,6,7,1382,904,350,0,"a.sham","press",1,"GAL","Go",1,141,"2",13,"neutral","Avoid",NA
"782","EEMR0429",8,8,5,6,7,1615,898,0,0,"a.sham","no_press",0,"GW","Go",0,142,"2",18,"neutral","Win",NA
"783","EEMR0429",5,8,5,6,7,2734,765,495,0,"a.sham","press",1,"GAL","Go",1,143,"2",14,"neutral","Avoid",NA
"784","EEMR0429",5,8,5,6,7,2926,665,473,0,"a.sham","press",1,"GAL","Go",1,144,"2",15,"neutral","Avoid",NA
"785","EEMR0429",6,8,5,6,7,2185,770,0,0,"a.sham","no_press",0,"NGW","noGo",1,145,"2",16,"neutral","Win",NA
"786","EEMR0429",8,8,5,6,7,5000,790,0,0,"a.sham","no_press",0,"GW","Go",0,146,"2",19,"neutral","Win",NA
"787","EEMR0429",7,8,5,6,7,2460,780,0,0,"a.sham","no_press",0,"NGL","noGo",1,147,"2",17,"neutral","Avoid",NA
"788","EEMR0429",5,8,5,6,7,1551,798,454,0,"a.sham","press",1,"GAL","Go",1,148,"2",16,"neutral","Avoid",NA
"789","EEMR0429",6,8,5,6,7,1820,914,0,1,"a.sham","no_press",0,"NGW","noGo",1,149,"2",17,"win","Win","win"
"790","EEMR0429",7,8,5,6,7,2057,750,0,0,"a.sham","no_press",0,"NGL","noGo",1,150,"2",18,"neutral","Avoid",NA
"791","EEMR0429",7,8,5,6,7,2435,698,0,0,"a.sham","no_press",0,"NGL","noGo",1,151,"2",19,"neutral","Avoid",NA
"792","EEMR0429",5,8,5,6,7,2763,828,384,0,"a.sham","press",1,"GAL","Go",1,152,"2",17,"neutral","Avoid",NA
"793","EEMR0429",6,8,5,6,7,1815,881,0,1,"a.sham","no_press",0,"NGW","noGo",1,153,"2",18,"win","Win","win"
"794","EEMR0429",5,8,5,6,7,1585,694,485,0,"a.sham","press",1,"GAL","Go",1,154,"2",18,"neutral","Avoid",NA
"795","EEMR0429",5,8,5,6,7,1198,799,322,0,"a.sham","press",1,"GAL","Go",1,155,"2",19,"neutral","Avoid",NA
"796","EEMR0429",5,8,5,6,7,1349,691,401,0,"a.sham","press",1,"GAL","Go",1,156,"2",20,"neutral","Avoid",NA
"797","EEMR0429",8,8,5,6,7,2107,663,0,1,"a.sham","no_press",0,"GW","Go",0,157,"2",20,"win","Win","win"
"798","EEMR0429",6,8,5,6,7,1919,716,0,1,"a.sham","no_press",0,"NGW","noGo",1,158,"2",19,"win","Win","win"
"799","EEMR0429",6,8,5,6,7,1997,873,0,0,"a.sham","no_press",0,"NGW","noGo",1,159,"2",20,"neutral","Win",NA
"800","EEMR0429",7,8,5,6,7,1474,559,0,0,"a.sham","no_press",0,"NGL","noGo",1,160,"2",20,"neutral","Avoid",NA
"801","EEMR0429",11,10,9,12,11,2138,890,0,0,"a.sham","no_press",0,"NGL","noGo",1,161,"3",1,"neutral","Avoid",NA
"802","EEMR0429",12,10,9,12,11,1900,974,0,1,"a.sham","no_press",0,"NGW","noGo",1,162,"3",1,"win","Win","win"
"803","EEMR0429",9,10,9,12,11,2089,870,0,-1,"a.sham","no_press",0,"GAL","Go",0,163,"3",1,"lose","Avoid","lose"
"804","EEMR0429",11,10,9,12,11,1873,964,0,0,"a.sham","no_press",0,"NGL","noGo",1,164,"3",2,"neutral","Avoid",NA
"805","EEMR0429",12,10,9,12,11,2008,701,0,1,"a.sham","no_press",0,"NGW","noGo",1,165,"3",2,"win","Win","win"
"806","EEMR0429",10,10,9,12,11,2581,679,0,0,"a.sham","no_press",0,"GW","Go",0,166,"3",1,"neutral","Win",NA
"807","EEMR0429",10,10,9,12,11,1461,734,0,0,"a.sham","no_press",0,"GW","Go",0,167,"3",2,"neutral","Win",NA
"808","EEMR0429",9,10,9,12,11,1660,880,589,0,"a.sham","press",1,"GAL","Go",1,168,"3",2,"neutral","Avoid",NA
"809","EEMR0429",10,10,9,12,11,2640,983,0,1,"a.sham","no_press",0,"GW","Go",0,169,"3",3,"win","Win","win"
"810","EEMR0429",9,10,9,12,11,1743,819,595,0,"a.sham","press",1,"GAL","Go",1,170,"3",3,"neutral","Avoid",NA
"811","EEMR0429",11,10,9,12,11,2031,666,0,0,"a.sham","no_press",0,"NGL","noGo",1,171,"3",3,"neutral","Avoid",NA
"812","EEMR0429",9,10,9,12,11,1838,613,624,0,"a.sham","press",1,"GAL","Go",1,172,"3",4,"neutral","Avoid",NA
"813","EEMR0429",9,10,9,12,11,2927,826,870,-1,"a.sham","press",1,"GAL","Go",1,173,"3",5,"lose","Avoid","lose"
"814","EEMR0429",12,10,9,12,11,1706,745,0,1,"a.sham","no_press",0,"NGW","noGo",1,174,"3",3,"win","Win","win"
"815","EEMR0429",10,10,9,12,11,2222,881,0,0,"a.sham","no_press",0,"GW","Go",0,175,"3",4,"neutral","Win",NA
"816","EEMR0429",12,10,9,12,11,1988,595,0,0,"a.sham","no_press",0,"NGW","noGo",1,176,"3",4,"neutral","Win",NA
"817","EEMR0429",11,10,9,12,11,1759,594,0,0,"a.sham","no_press",0,"NGL","noGo",1,177,"3",4,"neutral","Avoid",NA
"818","EEMR0429",11,10,9,12,11,1819,515,0,0,"a.sham","no_press",0,"NGL","noGo",1,178,"3",5,"neutral","Avoid",NA
"819","EEMR0429",11,10,9,12,11,1813,672,0,0,"a.sham","no_press",0,"NGL","noGo",1,179,"3",6,"neutral","Avoid",NA
"820","EEMR0429",12,10,9,12,11,2289,746,0,1,"a.sham","no_press",0,"NGW","noGo",1,180,"3",5,"win","Win","win"
"821","EEMR0429",9,10,9,12,11,2818,910,572,-1,"a.sham","press",1,"GAL","Go",1,181,"3",6,"lose","Avoid","lose"
"822","EEMR0429",9,10,9,12,11,1880,634,347,0,"a.sham","press",1,"GAL","Go",1,182,"3",7,"neutral","Avoid",NA
"823","EEMR0429",10,10,9,12,11,1788,689,0,0,"a.sham","no_press",0,"GW","Go",0,183,"3",5,"neutral","Win",NA
"824","EEMR0429",11,10,9,12,11,1512,749,0,0,"a.sham","no_press",0,"NGL","noGo",1,184,"3",7,"neutral","Avoid",NA
"825","EEMR0429",9,10,9,12,11,1794,676,494,0,"a.sham","press",1,"GAL","Go",1,185,"3",8,"neutral","Avoid",NA
"826","EEMR0429",9,10,9,12,11,2958,807,492,0,"a.sham","press",1,"GAL","Go",1,186,"3",9,"neutral","Avoid",NA
"827","EEMR0429",11,10,9,12,11,1300,877,0,-1,"a.sham","no_press",0,"NGL","noGo",1,187,"3",8,"lose","Avoid","lose"
"828","EEMR0429",12,10,9,12,11,1576,854,0,1,"a.sham","no_press",0,"NGW","noGo",1,188,"3",6,"win","Win","win"
"829","EEMR0429",12,10,9,12,11,2076,718,0,1,"a.sham","no_press",0,"NGW","noGo",1,189,"3",7,"win","Win","win"
"830","EEMR0429",12,10,9,12,11,1595,784,0,1,"a.sham","no_press",0,"NGW","noGo",1,190,"3",8,"win","Win","win"
"831","EEMR0429",9,10,9,12,11,2058,522,485,0,"a.sham","press",1,"GAL","Go",1,191,"3",10,"neutral","Avoid",NA
"832","EEMR0429",9,10,9,12,11,1631,972,527,0,"a.sham","press",1,"GAL","Go",1,192,"3",11,"neutral","Avoid",NA
"833","EEMR0429",10,10,9,12,11,2203,807,0,0,"a.sham","no_press",0,"GW","Go",0,193,"3",6,"neutral","Win",NA
"834","EEMR0429",9,10,9,12,11,1504,740,519,0,"a.sham","press",1,"GAL","Go",1,194,"3",12,"neutral","Avoid",NA
"835","EEMR0429",11,10,9,12,11,3057,878,0,-1,"a.sham","no_press",0,"NGL","noGo",1,195,"3",9,"lose","Avoid","lose"
"836","EEMR0429",9,10,9,12,11,2934,958,643,0,"a.sham","press",1,"GAL","Go",1,196,"3",13,"neutral","Avoid",NA
"837","EEMR0429",10,10,9,12,11,2763,876,0,1,"a.sham","no_press",0,"GW","Go",0,197,"3",7,"win","Win","win"
"838","EEMR0429",10,10,9,12,11,2253,588,0,0,"a.sham","no_press",0,"GW","Go",0,198,"3",8,"neutral","Win",NA
"839","EEMR0429",12,10,9,12,11,2273,943,0,1,"a.sham","no_press",0,"NGW","noGo",1,199,"3",9,"win","Win","win"
"840","EEMR0429",12,10,9,12,11,1832,905,0,0,"a.sham","no_press",0,"NGW","noGo",1,200,"3",10,"neutral","Win",NA
"841","EEMR0429",12,10,9,12,11,1720,893,0,1,"a.sham","no_press",0,"NGW","noGo",1,201,"3",11,"win","Win","win"
"842","EEMR0429",12,10,9,12,11,1841,723,0,0,"a.sham","no_press",0,"NGW","noGo",1,202,"3",12,"neutral","Win",NA
"843","EEMR0429",10,10,9,12,11,3243,828,0,0,"a.sham","no_press",0,"GW","Go",0,203,"3",9,"neutral","Win",NA
"844","EEMR0429",12,10,9,12,11,2080,606,0,1,"a.sham","no_press",0,"NGW","noGo",1,204,"3",13,"win","Win","win"
"845","EEMR0429",9,10,9,12,11,1832,827,713,0,"a.sham","press",1,"GAL","Go",1,205,"3",14,"neutral","Avoid",NA
"846","EEMR0429",12,10,9,12,11,1000,824,0,1,"a.sham","no_press",0,"NGW","noGo",1,206,"3",14,"win","Win","win"
"847","EEMR0429",10,10,9,12,11,1953,586,0,0,"a.sham","no_press",0,"GW","Go",0,207,"3",10,"neutral","Win",NA
"848","EEMR0429",9,10,9,12,11,2194,666,485,0,"a.sham","press",1,"GAL","Go",1,208,"3",15,"neutral","Avoid",NA
"849","EEMR0429",12,10,9,12,11,1775,827,0,1,"a.sham","no_press",0,"NGW","noGo",1,209,"3",15,"win","Win","win"
"850","EEMR0429",9,10,9,12,11,3235,839,518,0,"a.sham","press",1,"GAL","Go",1,210,"3",16,"neutral","Avoid",NA
"851","EEMR0429",10,10,9,12,11,2078,561,0,0,"a.sham","no_press",0,"GW","Go",0,211,"3",11,"neutral","Win",NA
"852","EEMR0429",11,10,9,12,11,2266,906,0,0,"a.sham","no_press",0,"NGL","noGo",1,212,"3",10,"neutral","Avoid",NA
"853","EEMR0429",11,10,9,12,11,1623,517,0,0,"a.sham","no_press",0,"NGL","noGo",1,213,"3",11,"neutral","Avoid",NA
"854","EEMR0429",10,10,9,12,11,2709,954,0,1,"a.sham","no_press",0,"GW","Go",0,214,"3",12,"win","Win","win"
"855","EEMR0429",10,10,9,12,11,2374,761,0,0,"a.sham","no_press",0,"GW","Go",0,215,"3",13,"neutral","Win",NA
"856","EEMR0429",10,10,9,12,11,2276,851,0,0,"a.sham","no_press",0,"GW","Go",0,216,"3",14,"neutral","Win",NA
"857","EEMR0429",10,10,9,12,11,2102,591,0,1,"a.sham","no_press",0,"GW","Go",0,217,"3",15,"win","Win","win"
"858","EEMR0429",11,10,9,12,11,2086,585,0,0,"a.sham","no_press",0,"NGL","noGo",1,218,"3",12,"neutral","Avoid",NA
"859","EEMR0429",11,10,9,12,11,1582,692,0,-1,"a.sham","no_press",0,"NGL","noGo",1,219,"3",13,"lose","Avoid","lose"
"860","EEMR0429",10,10,9,12,11,2306,897,0,0,"a.sham","no_press",0,"GW","Go",0,220,"3",16,"neutral","Win",NA
"861","EEMR0429",11,10,9,12,11,1000,661,0,-1,"a.sham","no_press",0,"NGL","noGo",1,221,"3",14,"lose","Avoid","lose"
"862","EEMR0429",10,10,9,12,11,2048,597,0,0,"a.sham","no_press",0,"GW","Go",0,222,"3",17,"neutral","Win",NA
"863","EEMR0429",9,10,9,12,11,2925,878,492,0,"a.sham","press",1,"GAL","Go",1,223,"3",17,"neutral","Avoid",NA
"864","EEMR0429",12,10,9,12,11,1655,806,0,1,"a.sham","no_press",0,"NGW","noGo",1,224,"3",16,"win","Win","win"
"865","EEMR0429",12,10,9,12,11,2231,972,0,1,"a.sham","no_press",0,"NGW","noGo",1,225,"3",17,"win","Win","win"
"866","EEMR0429",10,10,9,12,11,3179,643,0,0,"a.sham","no_press",0,"GW","Go",0,226,"3",18,"neutral","Win",NA
"867","EEMR0429",12,10,9,12,11,2275,541,0,0,"a.sham","no_press",0,"NGW","noGo",1,227,"3",18,"neutral","Win",NA
"868","EEMR0429",12,10,9,12,11,1834,916,0,1,"a.sham","no_press",0,"NGW","noGo",1,228,"3",19,"win","Win","win"
"869","EEMR0429",11,10,9,12,11,2289,731,0,0,"a.sham","no_press",0,"NGL","noGo",1,229,"3",15,"neutral","Avoid",NA
"870","EEMR0429",10,10,9,12,11,2829,628,0,0,"a.sham","no_press",0,"GW","Go",0,230,"3",19,"neutral","Win",NA
"871","EEMR0429",9,10,9,12,11,2244,593,619,0,"a.sham","press",1,"GAL","Go",1,231,"3",18,"neutral","Avoid",NA
"872","EEMR0429",11,10,9,12,11,1528,866,0,0,"a.sham","no_press",0,"NGL","noGo",1,232,"3",16,"neutral","Avoid",NA
"873","EEMR0429",11,10,9,12,11,2520,984,0,0,"a.sham","no_press",0,"NGL","noGo",1,233,"3",17,"neutral","Avoid",NA
"874","EEMR0429",12,10,9,12,11,2668,966,0,1,"a.sham","no_press",0,"NGW","noGo",1,234,"3",20,"win","Win","win"
"875","EEMR0429",11,10,9,12,11,1592,696,0,0,"a.sham","no_press",0,"NGL","noGo",1,235,"3",18,"neutral","Avoid",NA
"876","EEMR0429",10,10,9,12,11,2485,548,0,0,"a.sham","no_press",0,"GW","Go",0,236,"3",20,"neutral","Win",NA
"877","EEMR0429",9,10,9,12,11,3075,903,500,0,"a.sham","press",1,"GAL","Go",1,237,"3",19,"neutral","Avoid",NA
"878","EEMR0429",11,10,9,12,11,1856,941,0,0,"a.sham","no_press",0,"NGL","noGo",1,238,"3",19,"neutral","Avoid",NA
"879","EEMR0429",9,10,9,12,11,1513,971,569,-1,"a.sham","press",1,"GAL","Go",1,239,"3",20,"lose","Avoid","lose"
"880","EEMR0429",11,10,9,12,11,1871,572,0,0,"a.sham","no_press",0,"NGL","noGo",1,240,"3",20,"neutral","Avoid",NA
"881","EEMR0429",15,14,13,16,15,2353,625,0,0,"a.sham","no_press",0,"NGL","noGo",1,241,"4",1,"neutral","Avoid",NA
"882","EEMR0429",16,14,13,16,15,2689,515,0,1,"a.sham","no_press",0,"NGW","noGo",1,242,"4",1,"win","Win","win"
"883","EEMR0429",16,14,13,16,15,1857,933,0,0,"a.sham","no_press",0,"NGW","noGo",1,243,"4",2,"neutral","Win",NA
"884","EEMR0429",16,14,13,16,15,1497,914,0,1,"a.sham","no_press",0,"NGW","noGo",1,244,"4",3,"win","Win","win"
"885","EEMR0429",15,14,13,16,15,1343,793,0,0,"a.sham","no_press",0,"NGL","noGo",1,245,"4",2,"neutral","Avoid",NA
"886","EEMR0429",16,14,13,16,15,1851,768,0,1,"a.sham","no_press",0,"NGW","noGo",1,246,"4",4,"win","Win","win"
"887","EEMR0429",14,14,13,16,15,1247,597,0,0,"a.sham","no_press",0,"GW","Go",0,247,"4",1,"neutral","Win",NA
"888","EEMR0429",13,14,13,16,15,2114,895,0,-1,"a.sham","no_press",0,"GAL","Go",0,248,"4",1,"lose","Avoid","lose"
"889","EEMR0429",16,14,13,16,15,2547,924,0,1,"a.sham","no_press",0,"NGW","noGo",1,249,"4",5,"win","Win","win"
"890","EEMR0429",13,14,13,16,15,2100,772,654,0,"a.sham","press",1,"GAL","Go",1,250,"4",2,"neutral","Avoid",NA
"891","EEMR0429",14,14,13,16,15,1659,982,0,0,"a.sham","no_press",0,"GW","Go",0,251,"4",2,"neutral","Win",NA
"892","EEMR0429",15,14,13,16,15,1898,852,0,0,"a.sham","no_press",0,"NGL","noGo",1,252,"4",3,"neutral","Avoid",NA
"893","EEMR0429",13,14,13,16,15,1584,619,609,0,"a.sham","press",1,"GAL","Go",1,253,"4",3,"neutral","Avoid",NA
"894","EEMR0429",15,14,13,16,15,2907,770,0,-1,"a.sham","no_press",0,"NGL","noGo",1,254,"4",4,"lose","Avoid","lose"
"895","EEMR0429",14,14,13,16,15,1470,760,0,0,"a.sham","no_press",0,"GW","Go",0,255,"4",3,"neutral","Win",NA
"896","EEMR0429",13,14,13,16,15,1238,812,354,-1,"a.sham","press",1,"GAL","Go",1,256,"4",4,"lose","Avoid","lose"
"897","EEMR0429",13,14,13,16,15,2334,823,540,0,"a.sham","press",1,"GAL","Go",1,257,"4",5,"neutral","Avoid",NA
"898","EEMR0429",15,14,13,16,15,2525,983,0,-1,"a.sham","no_press",0,"NGL","noGo",1,258,"4",5,"lose","Avoid","lose"
"899","EEMR0429",15,14,13,16,15,1550,831,0,0,"a.sham","no_press",0,"NGL","noGo",1,259,"4",6,"neutral","Avoid",NA
"900","EEMR0429",14,14,13,16,15,2398,669,0,1,"a.sham","no_press",0,"GW","Go",0,260,"4",4,"win","Win","win"
"901","EEMR0429",15,14,13,16,15,2335,974,0,0,"a.sham","no_press",0,"NGL","noGo",1,261,"4",7,"neutral","Avoid",NA
"902","EEMR0429",15,14,13,16,15,1254,967,0,0,"a.sham","no_press",0,"NGL","noGo",1,262,"4",8,"neutral","Avoid",NA
"903","EEMR0429",14,14,13,16,15,2128,505,0,0,"a.sham","no_press",0,"GW","Go",0,263,"4",5,"neutral","Win",NA
"904","EEMR0429",13,14,13,16,15,1723,972,486,0,"a.sham","press",1,"GAL","Go",1,264,"4",6,"neutral","Avoid",NA
"905","EEMR0429",16,14,13,16,15,1757,647,0,1,"a.sham","no_press",0,"NGW","noGo",1,265,"4",6,"win","Win","win"
"906","EEMR0429",15,14,13,16,15,1207,712,0,0,"a.sham","no_press",0,"NGL","noGo",1,266,"4",9,"neutral","Avoid",NA
"907","EEMR0429",15,14,13,16,15,1469,716,0,0,"a.sham","no_press",0,"NGL","noGo",1,267,"4",10,"neutral","Avoid",NA
"908","EEMR0429",14,14,13,16,15,2014,520,0,0,"a.sham","no_press",0,"GW","Go",0,268,"4",6,"neutral","Win",NA
"909","EEMR0429",14,14,13,16,15,1671,553,0,1,"a.sham","no_press",0,"GW","Go",0,269,"4",7,"win","Win","win"
"910","EEMR0429",13,14,13,16,15,1567,830,570,0,"a.sham","press",1,"GAL","Go",1,270,"4",7,"neutral","Avoid",NA
"911","EEMR0429",13,14,13,16,15,2229,992,439,0,"a.sham","press",1,"GAL","Go",1,271,"4",8,"neutral","Avoid",NA
"912","EEMR0429",13,14,13,16,15,1646,801,510,0,"a.sham","press",1,"GAL","Go",1,272,"4",9,"neutral","Avoid",NA
"913","EEMR0429",15,14,13,16,15,1759,682,0,0,"a.sham","no_press",0,"NGL","noGo",1,273,"4",11,"neutral","Avoid",NA
"914","EEMR0429",13,14,13,16,15,2800,925,652,0,"a.sham","press",1,"GAL","Go",1,274,"4",10,"neutral","Avoid",NA
"915","EEMR0429",13,14,13,16,15,1447,871,584,0,"a.sham","press",1,"GAL","Go",1,275,"4",11,"neutral","Avoid",NA
"916","EEMR0429",15,14,13,16,15,1737,947,0,0,"a.sham","no_press",0,"NGL","noGo",1,276,"4",12,"neutral","Avoid",NA
"917","EEMR0429",16,14,13,16,15,1984,936,0,1,"a.sham","no_press",0,"NGW","noGo",1,277,"4",7,"win","Win","win"
"918","EEMR0429",15,14,13,16,15,1181,986,0,-1,"a.sham","no_press",0,"NGL","noGo",1,278,"4",13,"lose","Avoid","lose"
"919","EEMR0429",13,14,13,16,15,2086,672,471,0,"a.sham","press",1,"GAL","Go",1,279,"4",12,"neutral","Avoid",NA
"920","EEMR0429",16,14,13,16,15,2246,786,0,1,"a.sham","no_press",0,"NGW","noGo",1,280,"4",8,"win","Win","win"
