"","ID","stim_ID","GW","GAL","NGW","NGL","jitter1","jitter2","RT","outcomefeed","condition","response","GoResponse","Cue","req_action","correct","trial_number","block","TrialCount","feedback","OutValence","salient"
"1","BNVN0020",4,4,1,2,3,3412,990,0,0,"a.sham","no_press",0,"GW","Go",0,1,"1",1,"neutral","Win",NA
"2","BNVN0020",1,4,1,2,3,1824,777,549,0,"a.sham","press",1,"GAL","Go",1,2,"1",1,"neutral","Avoid",NA
"3","BNVN0020",2,4,1,2,3,1942,696,626,0,"a.sham","press",1,"NGW","noGo",0,3,"1",1,"neutral","Win",NA
"4","BNVN0020",4,4,1,2,3,2253,891,0,0,"a.sham","no_press",0,"GW","Go",0,4,"1",2,"neutral","Win",NA
"5","BNVN0020",1,4,1,2,3,2503,673,615,0,"a.sham","press",1,"GAL","Go",1,5,"1",2,"neutral","Avoid",NA
"6","BNVN0020",1,4,1,2,3,2272,697,559,0,"a.sham","press",1,"GAL","Go",1,6,"1",3,"neutral","Avoid",NA
"7","BNVN0020",1,4,1,2,3,1795,991,512,0,"a.sham","press",1,"GAL","Go",1,7,"1",4,"neutral","Avoid",NA
"8","BNVN0020",1,4,1,2,3,1000,545,601,0,"a.sham","press",1,"GAL","Go",1,8,"1",5,"neutral","Avoid",NA
"9","BNVN0020",1,4,1,2,3,2404,683,0,0,"a.sham","no_press",0,"GAL","Go",0,9,"1",6,"neutral","Avoid",NA
"10","BNVN0020",3,4,1,2,3,1326,561,751,-1,"a.sham","press",1,"NGL","noGo",0,10,"1",1,"lose","Avoid","lose"
"11","BNVN0020",1,4,1,2,3,2538,934,707,0,"a.sham","press",1,"GAL","Go",1,11,"1",7,"neutral","Avoid",NA
"12","BNVN0020",3,4,1,2,3,1690,763,469,-1,"a.sham","press",1,"NGL","noGo",0,12,"1",2,"lose","Avoid","lose"
"13","BNVN0020",3,4,1,2,3,2930,914,681,-1,"a.sham","press",1,"NGL","noGo",0,13,"1",3,"lose","Avoid","lose"
"14","BNVN0020",1,4,1,2,3,2184,602,1103,0,"a.sham","press",1,"GAL","Go",1,14,"1",8,"neutral","Avoid",NA
"15","BNVN0020",2,4,1,2,3,1780,551,1321,0,"a.sham","press",1,"NGW","noGo",0,15,"1",2,"neutral","Win",NA
"16","BNVN0020",3,4,1,2,3,2547,691,0,0,"a.sham","no_press",0,"NGL","noGo",1,16,"1",4,"neutral","Avoid",NA
"17","BNVN0020",3,4,1,2,3,2149,778,0,0,"a.sham","no_press",0,"NGL","noGo",1,17,"1",5,"neutral","Avoid",NA
"18","BNVN0020",1,4,1,2,3,1338,918,0,0,"a.sham","no_press",0,"GAL","Go",0,18,"1",9,"neutral","Avoid",NA
"19","BNVN0020",4,4,1,2,3,2224,608,680,1,"a.sham","press",1,"GW","Go",1,19,"1",3,"win","Win","win"
"20","BNVN0020",1,4,1,2,3,1795,875,681,0,"a.sham","press",1,"GAL","Go",1,20,"1",10,"neutral","Avoid",NA
"21","BNVN0020",2,4,1,2,3,2785,798,0,1,"a.sham","no_press",0,"NGW","noGo",1,21,"1",3,"win","Win","win"
"22","BNVN0020",2,4,1,2,3,2615,600,0,1,"a.sham","no_press",0,"NGW","noGo",1,22,"1",4,"win","Win","win"
"23","BNVN0020",4,4,1,2,3,1249,755,0,0,"a.sham","no_press",0,"GW","Go",0,23,"1",4,"neutral","Win",NA
"24","BNVN0020",1,4,1,2,3,1407,672,1220,0,"a.sham","press",1,"GAL","Go",1,24,"1",11,"neutral","Avoid",NA
"25","BNVN0020",4,4,1,2,3,1598,752,0,0,"a.sham","no_press",0,"GW","Go",0,25,"1",5,"neutral","Win",NA
"26","BNVN0020",2,4,1,2,3,1709,966,0,1,"a.sham","no_press",0,"NGW","noGo",1,26,"1",5,"win","Win","win"
"27","BNVN0020",4,4,1,2,3,2066,743,0,0,"a.sham","no_press",0,"GW","Go",0,27,"1",6,"neutral","Win",NA
"28","BNVN0020",1,4,1,2,3,1166,953,1495,0,"a.sham","press",1,"GAL","Go",1,28,"1",12,"neutral","Avoid",NA
"29","BNVN0020",3,4,1,2,3,1458,862,0,0,"a.sham","no_press",0,"NGL","noGo",1,29,"1",6,"neutral","Avoid",NA
"30","BNVN0020",2,4,1,2,3,2103,956,0,1,"a.sham","no_press",0,"NGW","noGo",1,30,"1",6,"win","Win","win"
"31","BNVN0020",2,4,1,2,3,1608,999,0,1,"a.sham","no_press",0,"NGW","noGo",1,31,"1",7,"win","Win","win"
"32","BNVN0020",4,4,1,2,3,1598,939,0,0,"a.sham","no_press",0,"GW","Go",0,32,"1",7,"neutral","Win",NA
"33","BNVN0020",3,4,1,2,3,1784,641,0,0,"a.sham","no_press",0,"NGL","noGo",1,33,"1",7,"neutral","Avoid",NA
"34","BNVN0020",3,4,1,2,3,1484,895,0,-1,"a.sham","no_press",0,"NGL","noGo",1,34,"1",8,"lose","Avoid","lose"
"35","BNVN0020",2,4,1,2,3,1715,641,0,1,"a.sham","no_press",0,"NGW","noGo",1,35,"1",8,"win","Win","win"
"36","BNVN0020",4,4,1,2,3,2386,868,0,0,"a.sham","no_press",0,"GW","Go",0,36,"1",8,"neutral","Win",NA
"37","BNVN0020",4,4,1,2,3,2288,864,844,0,"a.sham","press",1,"GW","Go",1,37,"1",9,"neutral","Win",NA
"38","BNVN0020",3,4,1,2,3,2663,737,1238,-1,"a.sham","press",1,"NGL","noGo",0,38,"1",9,"lose","Avoid","lose"
"39","BNVN0020",1,4,1,2,3,2822,656,431,0,"a.sham","press",1,"GAL","Go",1,39,"1",13,"neutral","Avoid",NA
"40","BNVN0020",2,4,1,2,3,1889,818,0,1,"a.sham","no_press",0,"NGW","noGo",1,40,"1",9,"win","Win","win"
"41","BNVN0020",2,4,1,2,3,1364,791,0,1,"a.sham","no_press",0,"NGW","noGo",1,41,"1",10,"win","Win","win"
"42","BNVN0020",3,4,1,2,3,2318,546,0,-1,"a.sham","no_press",0,"NGL","noGo",1,42,"1",10,"lose","Avoid","lose"
"43","BNVN0020",3,4,1,2,3,1752,758,657,-1,"a.sham","press",1,"NGL","noGo",0,43,"1",11,"lose","Avoid","lose"
"44","BNVN0020",4,4,1,2,3,2664,887,1052,1,"a.sham","press",1,"GW","Go",1,44,"1",10,"win","Win","win"
"45","BNVN0020",2,4,1,2,3,1779,791,0,1,"a.sham","no_press",0,"NGW","noGo",1,45,"1",11,"win","Win","win"
"46","BNVN0020",1,4,1,2,3,1463,905,0,-1,"a.sham","no_press",0,"GAL","Go",0,46,"1",14,"lose","Avoid","lose"
"47","BNVN0020",2,4,1,2,3,2664,630,0,1,"a.sham","no_press",0,"NGW","noGo",1,47,"1",12,"win","Win","win"
"48","BNVN0020",3,4,1,2,3,1842,645,1055,0,"a.sham","press",1,"NGL","noGo",0,48,"1",12,"neutral","Avoid",NA
"49","BNVN0020",3,4,1,2,3,2349,798,519,-1,"a.sham","press",1,"NGL","noGo",0,49,"1",13,"lose","Avoid","lose"
"50","BNVN0020",2,4,1,2,3,1246,952,0,0,"a.sham","no_press",0,"NGW","noGo",1,50,"1",13,"neutral","Win",NA
"51","BNVN0020",3,4,1,2,3,2131,692,0,0,"a.sham","no_press",0,"NGL","noGo",1,51,"1",14,"neutral","Avoid",NA
"52","BNVN0020",3,4,1,2,3,2008,861,0,0,"a.sham","no_press",0,"NGL","noGo",1,52,"1",15,"neutral","Avoid",NA
"53","BNVN0020",1,4,1,2,3,1511,531,0,-1,"a.sham","no_press",0,"GAL","Go",0,53,"1",15,"lose","Avoid","lose"
"54","BNVN0020",1,4,1,2,3,2266,783,910,-1,"a.sham","press",1,"GAL","Go",1,54,"1",16,"lose","Avoid","lose"
"55","BNVN0020",4,4,1,2,3,1938,538,968,1,"a.sham","press",1,"GW","Go",1,55,"1",11,"win","Win","win"
"56","BNVN0020",3,4,1,2,3,1597,602,0,0,"a.sham","no_press",0,"NGL","noGo",1,56,"1",16,"neutral","Avoid",NA
"57","BNVN0020",4,4,1,2,3,1954,549,1356,1,"a.sham","press",1,"GW","Go",1,57,"1",12,"win","Win","win"
"58","BNVN0020",2,4,1,2,3,1575,891,0,1,"a.sham","no_press",0,"NGW","noGo",1,58,"1",14,"win","Win","win"
"59","BNVN0020",2,4,1,2,3,2650,932,0,1,"a.sham","no_press",0,"NGW","noGo",1,59,"1",15,"win","Win","win"
"60","BNVN0020",4,4,1,2,3,2132,951,895,0,"a.sham","press",1,"GW","Go",1,60,"1",13,"neutral","Win",NA
"61","BNVN0020",3,4,1,2,3,1559,632,0,0,"a.sham","no_press",0,"NGL","noGo",1,61,"1",17,"neutral","Avoid",NA
"62","BNVN0020",2,4,1,2,3,2315,865,0,0,"a.sham","no_press",0,"NGW","noGo",1,62,"1",16,"neutral","Win",NA
"63","BNVN0020",1,4,1,2,3,1861,577,0,-1,"a.sham","no_press",0,"GAL","Go",0,63,"1",17,"lose","Avoid","lose"
"64","BNVN0020",2,4,1,2,3,2116,673,0,1,"a.sham","no_press",0,"NGW","noGo",1,64,"1",17,"win","Win","win"
"65","BNVN0020",1,4,1,2,3,2493,788,468,0,"a.sham","press",1,"GAL","Go",1,65,"1",18,"neutral","Avoid",NA
"66","BNVN0020",4,4,1,2,3,2701,870,783,0,"a.sham","press",1,"GW","Go",1,66,"1",14,"neutral","Win",NA
"67","BNVN0020",3,4,1,2,3,3029,748,0,0,"a.sham","no_press",0,"NGL","noGo",1,67,"1",18,"neutral","Avoid",NA
"68","BNVN0020",4,4,1,2,3,1729,610,724,1,"a.sham","press",1,"GW","Go",1,68,"1",15,"win","Win","win"
"69","BNVN0020",3,4,1,2,3,2029,839,0,0,"a.sham","no_press",0,"NGL","noGo",1,69,"1",19,"neutral","Avoid",NA
"70","BNVN0020",4,4,1,2,3,2262,829,688,0,"a.sham","press",1,"GW","Go",1,70,"1",16,"neutral","Win",NA
"71","BNVN0020",1,4,1,2,3,1992,526,544,0,"a.sham","press",1,"GAL","Go",1,71,"1",19,"neutral","Avoid",NA
"72","BNVN0020",2,4,1,2,3,1434,803,0,0,"a.sham","no_press",0,"NGW","noGo",1,72,"1",18,"neutral","Win",NA
"73","BNVN0020",4,4,1,2,3,1289,790,656,1,"a.sham","press",1,"GW","Go",1,73,"1",17,"win","Win","win"
"74","BNVN0020",1,4,1,2,3,2087,623,734,0,"a.sham","press",1,"GAL","Go",1,74,"1",20,"neutral","Avoid",NA
"75","BNVN0020",2,4,1,2,3,2103,595,0,0,"a.sham","no_press",0,"NGW","noGo",1,75,"1",19,"neutral","Win",NA
"76","BNVN0020",4,4,1,2,3,2121,936,581,1,"a.sham","press",1,"GW","Go",1,76,"1",18,"win","Win","win"
"77","BNVN0020",4,4,1,2,3,1851,777,762,1,"a.sham","press",1,"GW","Go",1,77,"1",19,"win","Win","win"
"78","BNVN0020",2,4,1,2,3,1959,802,479,0,"a.sham","press",1,"NGW","noGo",0,78,"1",20,"neutral","Win",NA
"79","BNVN0020",4,4,1,2,3,3385,823,837,1,"a.sham","press",1,"GW","Go",1,79,"1",20,"win","Win","win"
"80","BNVN0020",3,4,1,2,3,1883,502,0,-1,"a.sham","no_press",0,"NGL","noGo",1,80,"1",20,"lose","Avoid","lose"
"81","BNVN0020",6,6,7,8,5,1465,843,1397,1,"a.sham","press",1,"GW","Go",1,81,"2",1,"win","Win","win"
"82","BNVN0020",5,6,7,8,5,1456,711,812,-1,"a.sham","press",1,"NGL","noGo",0,82,"2",1,"lose","Avoid","lose"
"83","BNVN0020",8,6,7,8,5,2700,519,850,0,"a.sham","press",1,"NGW","noGo",0,83,"2",1,"neutral","Win",NA
"84","BNVN0020",5,6,7,8,5,1505,945,0,0,"a.sham","no_press",0,"NGL","noGo",1,84,"2",2,"neutral","Avoid",NA
"85","BNVN0020",7,6,7,8,5,2252,511,1067,0,"a.sham","press",1,"GAL","Go",1,85,"2",1,"neutral","Avoid",NA
"86","BNVN0020",7,6,7,8,5,1495,528,776,0,"a.sham","press",1,"GAL","Go",1,86,"2",2,"neutral","Avoid",NA
"87","BNVN0020",5,6,7,8,5,2018,879,0,0,"a.sham","no_press",0,"NGL","noGo",1,87,"2",3,"neutral","Avoid",NA
"88","BNVN0020",6,6,7,8,5,1403,831,542,0,"a.sham","press",1,"GW","Go",1,88,"2",2,"neutral","Win",NA
"89","BNVN0020",5,6,7,8,5,2143,942,0,0,"a.sham","no_press",0,"NGL","noGo",1,89,"2",4,"neutral","Avoid",NA
"90","BNVN0020",8,6,7,8,5,1433,553,796,0,"a.sham","press",1,"NGW","noGo",0,90,"2",2,"neutral","Win",NA
"91","BNVN0020",5,6,7,8,5,1963,892,0,0,"a.sham","no_press",0,"NGL","noGo",1,91,"2",5,"neutral","Avoid",NA
"92","BNVN0020",8,6,7,8,5,1890,541,0,1,"a.sham","no_press",0,"NGW","noGo",1,92,"2",3,"win","Win","win"
"93","BNVN0020",6,6,7,8,5,2254,876,1351,1,"a.sham","press",1,"GW","Go",1,93,"2",3,"win","Win","win"
"94","BNVN0020",6,6,7,8,5,2306,927,937,1,"a.sham","press",1,"GW","Go",1,94,"2",4,"win","Win","win"
"95","BNVN0020",5,6,7,8,5,1671,969,0,0,"a.sham","no_press",0,"NGL","noGo",1,95,"2",6,"neutral","Avoid",NA
"96","BNVN0020",6,6,7,8,5,1927,736,465,1,"a.sham","press",1,"GW","Go",1,96,"2",5,"win","Win","win"
"97","BNVN0020",8,6,7,8,5,1966,998,1063,0,"a.sham","press",1,"NGW","noGo",0,97,"2",4,"neutral","Win",NA
"98","BNVN0020",7,6,7,8,5,1936,808,0,-1,"a.sham","no_press",0,"GAL","Go",0,98,"2",3,"lose","Avoid","lose"
"99","BNVN0020",8,6,7,8,5,1723,638,0,1,"a.sham","no_press",0,"NGW","noGo",1,99,"2",5,"win","Win","win"
"100","BNVN0020",8,6,7,8,5,1702,753,0,1,"a.sham","no_press",0,"NGW","noGo",1,100,"2",6,"win","Win","win"
"101","BNVN0020",7,6,7,8,5,1250,984,690,-1,"a.sham","press",1,"GAL","Go",1,101,"2",4,"lose","Avoid","lose"
"102","BNVN0020",7,6,7,8,5,2510,706,0,-1,"a.sham","no_press",0,"GAL","Go",0,102,"2",5,"lose","Avoid","lose"
"103","BNVN0020",6,6,7,8,5,1885,570,711,1,"a.sham","press",1,"GW","Go",1,103,"2",6,"win","Win","win"
"104","BNVN0020",8,6,7,8,5,1845,729,0,0,"a.sham","no_press",0,"NGW","noGo",1,104,"2",7,"neutral","Win",NA
"105","BNVN0020",5,6,7,8,5,1000,713,0,0,"a.sham","no_press",0,"NGL","noGo",1,105,"2",7,"neutral","Avoid",NA
"106","BNVN0020",7,6,7,8,5,1655,934,942,0,"a.sham","press",1,"GAL","Go",1,106,"2",6,"neutral","Avoid",NA
"107","BNVN0020",5,6,7,8,5,1453,818,0,0,"a.sham","no_press",0,"NGL","noGo",1,107,"2",8,"neutral","Avoid",NA
"108","BNVN0020",8,6,7,8,5,3128,629,0,0,"a.sham","no_press",0,"NGW","noGo",1,108,"2",8,"neutral","Win",NA
"109","BNVN0020",5,6,7,8,5,1504,564,0,0,"a.sham","no_press",0,"NGL","noGo",1,109,"2",9,"neutral","Avoid",NA
"110","BNVN0020",6,6,7,8,5,1736,631,690,1,"a.sham","press",1,"GW","Go",1,110,"2",7,"win","Win","win"
"111","BNVN0020",5,6,7,8,5,2964,500,0,0,"a.sham","no_press",0,"NGL","noGo",1,111,"2",10,"neutral","Avoid",NA
"112","BNVN0020",8,6,7,8,5,2318,885,0,1,"a.sham","no_press",0,"NGW","noGo",1,112,"2",9,"win","Win","win"
"113","BNVN0020",5,6,7,8,5,2724,596,0,0,"a.sham","no_press",0,"NGL","noGo",1,113,"2",11,"neutral","Avoid",NA
"114","BNVN0020",5,6,7,8,5,1921,850,0,0,"a.sham","no_press",0,"NGL","noGo",1,114,"2",12,"neutral","Avoid",NA
"115","BNVN0020",5,6,7,8,5,1622,524,1015,-1,"a.sham","press",1,"NGL","noGo",0,115,"2",13,"lose","Avoid","lose"
"116","BNVN0020",8,6,7,8,5,2549,936,0,1,"a.sham","no_press",0,"NGW","noGo",1,116,"2",10,"win","Win","win"
"117","BNVN0020",5,6,7,8,5,1575,977,0,-1,"a.sham","no_press",0,"NGL","noGo",1,117,"2",14,"lose","Avoid","lose"
"118","BNVN0020",7,6,7,8,5,2388,633,1003,0,"a.sham","press",1,"GAL","Go",1,118,"2",7,"neutral","Avoid",NA
"119","BNVN0020",7,6,7,8,5,1552,570,0,0,"a.sham","no_press",0,"GAL","Go",0,119,"2",8,"neutral","Avoid",NA
"120","BNVN0020",6,6,7,8,5,2548,550,699,1,"a.sham","press",1,"GW","Go",1,120,"2",8,"win","Win","win"
"121","BNVN0020",7,6,7,8,5,2299,900,740,0,"a.sham","press",1,"GAL","Go",1,121,"2",9,"neutral","Avoid",NA
"122","BNVN0020",6,6,7,8,5,1932,777,639,0,"a.sham","press",1,"GW","Go",1,122,"2",9,"neutral","Win",NA
"123","BNVN0020",7,6,7,8,5,1000,941,710,0,"a.sham","press",1,"GAL","Go",1,123,"2",10,"neutral","Avoid",NA
"124","BNVN0020",6,6,7,8,5,2745,720,629,1,"a.sham","press",1,"GW","Go",1,124,"2",10,"win","Win","win"
"125","BNVN0020",8,6,7,8,5,2274,923,0,0,"a.sham","no_press",0,"NGW","noGo",1,125,"2",11,"neutral","Win",NA
"126","BNVN0020",7,6,7,8,5,2251,629,0,-1,"a.sham","no_press",0,"GAL","Go",0,126,"2",11,"lose","Avoid","lose"
"127","BNVN0020",7,6,7,8,5,2206,543,691,0,"a.sham","press",1,"GAL","Go",1,127,"2",12,"neutral","Avoid",NA
"128","BNVN0020",8,6,7,8,5,1182,521,683,0,"a.sham","press",1,"NGW","noGo",0,128,"2",12,"neutral","Win",NA
"129","BNVN0020",7,6,7,8,5,2817,605,801,-1,"a.sham","press",1,"GAL","Go",1,129,"2",13,"lose","Avoid","lose"
"130","BNVN0020",8,6,7,8,5,2184,966,0,1,"a.sham","no_press",0,"NGW","noGo",1,130,"2",13,"win","Win","win"
"131","BNVN0020",5,6,7,8,5,2036,701,0,-1,"a.sham","no_press",0,"NGL","noGo",1,131,"2",15,"lose","Avoid","lose"
"132","BNVN0020",6,6,7,8,5,1939,580,700,1,"a.sham","press",1,"GW","Go",1,132,"2",11,"win","Win","win"
"133","BNVN0020",7,6,7,8,5,2218,670,0,-1,"a.sham","no_press",0,"GAL","Go",0,133,"2",14,"lose","Avoid","lose"
"134","BNVN0020",7,6,7,8,5,1678,557,674,0,"a.sham","press",1,"GAL","Go",1,134,"2",15,"neutral","Avoid",NA
"135","BNVN0020",7,6,7,8,5,2907,951,1010,0,"a.sham","press",1,"GAL","Go",1,135,"2",16,"neutral","Avoid",NA
"136","BNVN0020",5,6,7,8,5,2171,651,0,0,"a.sham","no_press",0,"NGL","noGo",1,136,"2",16,"neutral","Avoid",NA
"137","BNVN0020",6,6,7,8,5,1547,952,539,1,"a.sham","press",1,"GW","Go",1,137,"2",12,"win","Win","win"
"138","BNVN0020",7,6,7,8,5,1445,795,0,-1,"a.sham","no_press",0,"GAL","Go",0,138,"2",17,"lose","Avoid","lose"
"139","BNVN0020",5,6,7,8,5,2415,626,0,0,"a.sham","no_press",0,"NGL","noGo",1,139,"2",17,"neutral","Avoid",NA
"140","BNVN0020",8,6,7,8,5,2212,794,0,1,"a.sham","no_press",0,"NGW","noGo",1,140,"2",14,"win","Win","win"
"141","BNVN0020",8,6,7,8,5,2887,937,0,1,"a.sham","no_press",0,"NGW","noGo",1,141,"2",15,"win","Win","win"
"142","BNVN0020",5,6,7,8,5,1281,530,0,0,"a.sham","no_press",0,"NGL","noGo",1,142,"2",18,"neutral","Avoid",NA
"143","BNVN0020",8,6,7,8,5,2074,781,0,1,"a.sham","no_press",0,"NGW","noGo",1,143,"2",16,"win","Win","win"
"144","BNVN0020",6,6,7,8,5,2272,782,722,0,"a.sham","press",1,"GW","Go",1,144,"2",13,"neutral","Win",NA
"145","BNVN0020",7,6,7,8,5,1133,743,728,0,"a.sham","press",1,"GAL","Go",1,145,"2",18,"neutral","Avoid",NA
"146","BNVN0020",6,6,7,8,5,1576,908,766,1,"a.sham","press",1,"GW","Go",1,146,"2",14,"win","Win","win"
"147","BNVN0020",8,6,7,8,5,2467,966,0,1,"a.sham","no_press",0,"NGW","noGo",1,147,"2",17,"win","Win","win"
"148","BNVN0020",8,6,7,8,5,2096,720,0,1,"a.sham","no_press",0,"NGW","noGo",1,148,"2",18,"win","Win","win"
"149","BNVN0020",8,6,7,8,5,1951,602,0,0,"a.sham","no_press",0,"NGW","noGo",1,149,"2",19,"neutral","Win",NA
"150","BNVN0020",8,6,7,8,5,1468,822,0,1,"a.sham","no_press",0,"NGW","noGo",1,150,"2",20,"win","Win","win"
"151","BNVN0020",7,6,7,8,5,1948,675,999,-1,"a.sham","press",1,"GAL","Go",1,151,"2",19,"lose","Avoid","lose"
"152","BNVN0020",6,6,7,8,5,2088,606,804,1,"a.sham","press",1,"GW","Go",1,152,"2",15,"win","Win","win"
"153","BNVN0020",6,6,7,8,5,2528,625,657,1,"a.sham","press",1,"GW","Go",1,153,"2",16,"win","Win","win"
"154","BNVN0020",6,6,7,8,5,1990,770,700,1,"a.sham","press",1,"GW","Go",1,154,"2",17,"win","Win","win"
"155","BNVN0020",6,6,7,8,5,1674,626,926,0,"a.sham","press",1,"GW","Go",1,155,"2",18,"neutral","Win",NA
"156","BNVN0020",6,6,7,8,5,3323,879,822,1,"a.sham","press",1,"GW","Go",1,156,"2",19,"win","Win","win"
"157","BNVN0020",6,6,7,8,5,2380,574,533,1,"a.sham","press",1,"GW","Go",1,157,"2",20,"win","Win","win"
"158","BNVN0020",7,6,7,8,5,1922,770,693,0,"a.sham","press",1,"GAL","Go",1,158,"2",20,"neutral","Avoid",NA
"159","BNVN0020",5,6,7,8,5,2099,880,0,0,"a.sham","no_press",0,"NGL","noGo",1,159,"2",19,"neutral","Avoid",NA
"160","BNVN0020",5,6,7,8,5,1518,818,0,-1,"a.sham","no_press",0,"NGL","noGo",1,160,"2",20,"lose","Avoid","lose"
"161","BNVN0020",10,10,11,12,9,1509,760,1052,1,"a.sham","press",1,"GW","Go",1,161,"3",1,"win","Win","win"
"162","BNVN0020",12,10,11,12,9,2359,719,0,1,"a.sham","no_press",0,"NGW","noGo",1,162,"3",1,"win","Win","win"
"163","BNVN0020",9,10,11,12,9,2478,530,0,0,"a.sham","no_press",0,"NGL","noGo",1,163,"3",1,"neutral","Avoid",NA
"164","BNVN0020",11,10,11,12,9,1703,725,893,-1,"a.sham","press",1,"GAL","Go",1,164,"3",1,"lose","Avoid","lose"
"165","BNVN0020",9,10,11,12,9,2045,958,0,0,"a.sham","no_press",0,"NGL","noGo",1,165,"3",2,"neutral","Avoid",NA
"166","BNVN0020",11,10,11,12,9,1746,671,0,0,"a.sham","no_press",0,"GAL","Go",0,166,"3",2,"neutral","Avoid",NA
"167","BNVN0020",11,10,11,12,9,1187,886,0,-1,"a.sham","no_press",0,"GAL","Go",0,167,"3",3,"lose","Avoid","lose"
"168","BNVN0020",10,10,11,12,9,2152,605,923,1,"a.sham","press",1,"GW","Go",1,168,"3",2,"win","Win","win"
"169","BNVN0020",12,10,11,12,9,1826,585,0,1,"a.sham","no_press",0,"NGW","noGo",1,169,"3",2,"win","Win","win"
"170","BNVN0020",12,10,11,12,9,2481,684,0,1,"a.sham","no_press",0,"NGW","noGo",1,170,"3",3,"win","Win","win"
"171","BNVN0020",9,10,11,12,9,1717,781,0,0,"a.sham","no_press",0,"NGL","noGo",1,171,"3",3,"neutral","Avoid",NA
"172","BNVN0020",9,10,11,12,9,1304,822,0,0,"a.sham","no_press",0,"NGL","noGo",1,172,"3",4,"neutral","Avoid",NA
"173","BNVN0020",12,10,11,12,9,1787,519,0,1,"a.sham","no_press",0,"NGW","noGo",1,173,"3",4,"win","Win","win"
"174","BNVN0020",11,10,11,12,9,2122,730,0,0,"a.sham","no_press",0,"GAL","Go",0,174,"3",4,"neutral","Avoid",NA
"175","BNVN0020",12,10,11,12,9,1908,526,0,1,"a.sham","no_press",0,"NGW","noGo",1,175,"3",5,"win","Win","win"
"176","BNVN0020",11,10,11,12,9,2719,894,0,-1,"a.sham","no_press",0,"GAL","Go",0,176,"3",5,"lose","Avoid","lose"
"177","BNVN0020",10,10,11,12,9,2538,982,1395,0,"a.sham","press",1,"GW","Go",1,177,"3",3,"neutral","Win",NA
"178","BNVN0020",11,10,11,12,9,1788,811,1422,0,"a.sham","press",1,"GAL","Go",1,178,"3",6,"neutral","Avoid",NA
"179","BNVN0020",12,10,11,12,9,2745,525,0,0,"a.sham","no_press",0,"NGW","noGo",1,179,"3",6,"neutral","Win",NA
"180","BNVN0020",11,10,11,12,9,1807,881,0,-1,"a.sham","no_press",0,"GAL","Go",0,180,"3",7,"lose","Avoid","lose"
"181","BNVN0020",12,10,11,12,9,3876,758,0,1,"a.sham","no_press",0,"NGW","noGo",1,181,"3",7,"win","Win","win"
"182","BNVN0020",9,10,11,12,9,1615,939,0,0,"a.sham","no_press",0,"NGL","noGo",1,182,"3",5,"neutral","Avoid",NA
"183","BNVN0020",11,10,11,12,9,2451,933,1156,-1,"a.sham","press",1,"GAL","Go",1,183,"3",8,"lose","Avoid","lose"
"184","BNVN0020",10,10,11,12,9,1894,800,820,1,"a.sham","press",1,"GW","Go",1,184,"3",4,"win","Win","win"
"185","BNVN0020",10,10,11,12,9,2571,730,907,1,"a.sham","press",1,"GW","Go",1,185,"3",5,"win","Win","win"
"186","BNVN0020",10,10,11,12,9,2004,581,764,1,"a.sham","press",1,"GW","Go",1,186,"3",6,"win","Win","win"
"187","BNVN0020",9,10,11,12,9,2336,656,0,0,"a.sham","no_press",0,"NGL","noGo",1,187,"3",6,"neutral","Avoid",NA
"188","BNVN0020",9,10,11,12,9,1565,978,0,-1,"a.sham","no_press",0,"NGL","noGo",1,188,"3",7,"lose","Avoid","lose"
"189","BNVN0020",9,10,11,12,9,1678,817,0,0,"a.sham","no_press",0,"NGL","noGo",1,189,"3",8,"neutral","Avoid",NA
"190","BNVN0020",11,10,11,12,9,2337,933,0,-1,"a.sham","no_press",0,"GAL","Go",0,190,"3",9,"lose","Avoid","lose"
"191","BNVN0020",10,10,11,12,9,1620,572,676,1,"a.sham","press",1,"GW","Go",1,191,"3",7,"win","Win","win"
"192","BNVN0020",12,10,11,12,9,1725,761,0,0,"a.sham","no_press",0,"NGW","noGo",1,192,"3",8,"neutral","Win",NA
"193","BNVN0020",9,10,11,12,9,1937,951,0,0,"a.sham","no_press",0,"NGL","noGo",1,193,"3",9,"neutral","Avoid",NA
"194","BNVN0020",10,10,11,12,9,1432,736,545,0,"a.sham","press",1,"GW","Go",1,194,"3",8,"neutral","Win",NA
"195","BNVN0020",10,10,11,12,9,2518,680,711,1,"a.sham","press",1,"GW","Go",1,195,"3",9,"win","Win","win"
"196","BNVN0020",11,10,11,12,9,1721,909,857,0,"a.sham","press",1,"GAL","Go",1,196,"3",10,"neutral","Avoid",NA
"197","BNVN0020",11,10,11,12,9,1249,820,831,0,"a.sham","press",1,"GAL","Go",1,197,"3",11,"neutral","Avoid",NA
"198","BNVN0020",12,10,11,12,9,2273,779,0,1,"a.sham","no_press",0,"NGW","noGo",1,198,"3",9,"win","Win","win"
"199","BNVN0020",11,10,11,12,9,1967,562,936,0,"a.sham","press",1,"GAL","Go",1,199,"3",12,"neutral","Avoid",NA
"200","BNVN0020",10,10,11,12,9,1987,908,451,0,"a.sham","press",1,"GW","Go",1,200,"3",10,"neutral","Win",NA
"201","BNVN0020",11,10,11,12,9,1888,901,705,0,"a.sham","press",1,"GAL","Go",1,201,"3",13,"neutral","Avoid",NA
"202","BNVN0020",10,10,11,12,9,1688,664,679,1,"a.sham","press",1,"GW","Go",1,202,"3",11,"win","Win","win"
"203","BNVN0020",10,10,11,12,9,2131,902,691,1,"a.sham","press",1,"GW","Go",1,203,"3",12,"win","Win","win"
"204","BNVN0020",12,10,11,12,9,2444,519,0,1,"a.sham","no_press",0,"NGW","noGo",1,204,"3",10,"win","Win","win"
"205","BNVN0020",12,10,11,12,9,1879,994,0,0,"a.sham","no_press",0,"NGW","noGo",1,205,"3",11,"neutral","Win",NA
"206","BNVN0020",10,10,11,12,9,2185,780,777,1,"a.sham","press",1,"GW","Go",1,206,"3",13,"win","Win","win"
"207","BNVN0020",10,10,11,12,9,2557,602,769,1,"a.sham","press",1,"GW","Go",1,207,"3",14,"win","Win","win"
"208","BNVN0020",11,10,11,12,9,3158,508,852,0,"a.sham","press",1,"GAL","Go",1,208,"3",14,"neutral","Avoid",NA
"209","BNVN0020",12,10,11,12,9,1000,613,0,1,"a.sham","no_press",0,"NGW","noGo",1,209,"3",12,"win","Win","win"
"210","BNVN0020",12,10,11,12,9,3020,598,0,1,"a.sham","no_press",0,"NGW","noGo",1,210,"3",13,"win","Win","win"
"211","BNVN0020",10,10,11,12,9,2029,514,696,1,"a.sham","press",1,"GW","Go",1,211,"3",15,"win","Win","win"
"212","BNVN0020",12,10,11,12,9,2335,704,0,1,"a.sham","no_press",0,"NGW","noGo",1,212,"3",14,"win","Win","win"
"213","BNVN0020",10,10,11,12,9,2381,644,0,0,"a.sham","no_press",0,"GW","Go",0,213,"3",16,"neutral","Win",NA
"214","BNVN0020",12,10,11,12,9,1639,990,0,1,"a.sham","no_press",0,"NGW","noGo",1,214,"3",15,"win","Win","win"
"215","BNVN0020",9,10,11,12,9,1761,628,0,-1,"a.sham","no_press",0,"NGL","noGo",1,215,"3",10,"lose","Avoid","lose"
"216","BNVN0020",9,10,11,12,9,2010,759,674,-1,"a.sham","press",1,"NGL","noGo",0,216,"3",11,"lose","Avoid","lose"
"217","BNVN0020",12,10,11,12,9,2299,897,0,0,"a.sham","no_press",0,"NGW","noGo",1,217,"3",16,"neutral","Win",NA
"218","BNVN0020",12,10,11,12,9,1820,578,0,1,"a.sham","no_press",0,"NGW","noGo",1,218,"3",17,"win","Win","win"
"219","BNVN0020",12,10,11,12,9,2942,997,0,1,"a.sham","no_press",0,"NGW","noGo",1,219,"3",18,"win","Win","win"
"220","BNVN0020",10,10,11,12,9,2547,957,985,1,"a.sham","press",1,"GW","Go",1,220,"3",17,"win","Win","win"
"221","BNVN0020",9,10,11,12,9,2330,748,759,-1,"a.sham","press",1,"NGL","noGo",0,221,"3",12,"lose","Avoid","lose"
"222","BNVN0020",9,10,11,12,9,2601,935,0,-1,"a.sham","no_press",0,"NGL","noGo",1,222,"3",13,"lose","Avoid","lose"
"223","BNVN0020",10,10,11,12,9,1635,931,564,1,"a.sham","press",1,"GW","Go",1,223,"3",18,"win","Win","win"
"224","BNVN0020",11,10,11,12,9,2107,974,952,0,"a.sham","press",1,"GAL","Go",1,224,"3",15,"neutral","Avoid",NA
"225","BNVN0020",9,10,11,12,9,1509,648,646,-1,"a.sham","press",1,"NGL","noGo",0,225,"3",14,"lose","Avoid","lose"
"226","BNVN0020",12,10,11,12,9,5000,839,0,1,"a.sham","no_press",0,"NGW","noGo",1,226,"3",19,"win","Win","win"
"227","BNVN0020",12,10,11,12,9,2234,989,0,1,"a.sham","no_press",0,"NGW","noGo",1,227,"3",20,"win","Win","win"
"228","BNVN0020",9,10,11,12,9,1547,585,0,0,"a.sham","no_press",0,"NGL","noGo",1,228,"3",15,"neutral","Avoid",NA
"229","BNVN0020",9,10,11,12,9,2315,774,0,0,"a.sham","no_press",0,"NGL","noGo",1,229,"3",16,"neutral","Avoid",NA
"230","BNVN0020",9,10,11,12,9,2164,622,0,0,"a.sham","no_press",0,"NGL","noGo",1,230,"3",17,"neutral","Avoid",NA
"231","BNVN0020",11,10,11,12,9,2818,587,932,0,"a.sham","press",1,"GAL","Go",1,231,"3",16,"neutral","Avoid",NA
"232","BNVN0020",10,10,11,12,9,2482,767,735,0,"a.sham","press",1,"GW","Go",1,232,"3",19,"neutral","Win",NA
"233","BNVN0020",10,10,11,12,9,1344,965,579,1,"a.sham","press",1,"GW","Go",1,233,"3",20,"win","Win","win"
"234","BNVN0020",9,10,11,12,9,3276,640,0,0,"a.sham","no_press",0,"NGL","noGo",1,234,"3",18,"neutral","Avoid",NA
"235","BNVN0020",9,10,11,12,9,2298,671,0,0,"a.sham","no_press",0,"NGL","noGo",1,235,"3",19,"neutral","Avoid",NA
"236","BNVN0020",11,10,11,12,9,1785,928,965,0,"a.sham","press",1,"GAL","Go",1,236,"3",17,"neutral","Avoid",NA
"237","BNVN0020",11,10,11,12,9,1596,596,1056,0,"a.sham","press",1,"GAL","Go",1,237,"3",18,"neutral","Avoid",NA
"238","BNVN0020",9,10,11,12,9,1932,656,0,0,"a.sham","no_press",0,"NGL","noGo",1,238,"3",20,"neutral","Avoid",NA
"239","BNVN0020",11,10,11,12,9,2125,750,1099,0,"a.sham","press",1,"GAL","Go",1,239,"3",19,"neutral","Avoid",NA
"240","BNVN0020",11,10,11,12,9,1588,656,582,0,"a.sham","press",1,"GAL","Go",1,240,"3",20,"neutral","Avoid",NA
"241","BNVN0020",16,16,13,14,15,2492,783,907,1,"a.sham","press",1,"GW","Go",1,241,"4",1,"win","Win","win"
"242","BNVN0020",14,16,13,14,15,1869,934,643,0,"a.sham","press",1,"NGW","noGo",0,242,"4",1,"neutral","Win",NA
"243","BNVN0020",14,16,13,14,15,2794,638,854,1,"a.sham","press",1,"NGW","noGo",0,243,"4",2,"win","Win","win"
"244","BNVN0020",16,16,13,14,15,1346,710,619,1,"a.sham","press",1,"GW","Go",1,244,"4",2,"win","Win","win"
"245","BNVN0020",15,16,13,14,15,1474,840,1089,-1,"a.sham","press",1,"NGL","noGo",0,245,"4",1,"lose","Avoid","lose"
"246","BNVN0020",15,16,13,14,15,2776,515,0,0,"a.sham","no_press",0,"NGL","noGo",1,246,"4",2,"neutral","Avoid",NA
"247","BNVN0020",13,16,13,14,15,1990,805,0,-1,"a.sham","no_press",0,"GAL","Go",0,247,"4",1,"lose","Avoid","lose"
"248","BNVN0020",16,16,13,14,15,1942,698,436,0,"a.sham","press",1,"GW","Go",1,248,"4",3,"neutral","Win",NA
"249","BNVN0020",13,16,13,14,15,2873,820,760,0,"a.sham","press",1,"GAL","Go",1,249,"4",2,"neutral","Avoid",NA
"250","BNVN0020",14,16,13,14,15,2221,916,1147,0,"a.sham","press",1,"NGW","noGo",0,250,"4",3,"neutral","Win",NA
"251","BNVN0020",13,16,13,14,15,1822,631,0,0,"a.sham","no_press",0,"GAL","Go",0,251,"4",3,"neutral","Avoid",NA
"252","BNVN0020",15,16,13,14,15,1965,629,0,0,"a.sham","no_press",0,"NGL","noGo",1,252,"4",3,"neutral","Avoid",NA
"253","BNVN0020",14,16,13,14,15,2344,518,0,1,"a.sham","no_press",0,"NGW","noGo",1,253,"4",4,"win","Win","win"
"254","BNVN0020",15,16,13,14,15,2291,863,0,0,"a.sham","no_press",0,"NGL","noGo",1,254,"4",4,"neutral","Avoid",NA
"255","BNVN0020",15,16,13,14,15,2169,664,0,0,"a.sham","no_press",0,"NGL","noGo",1,255,"4",5,"neutral","Avoid",NA
"256","BNVN0020",15,16,13,14,15,2019,609,0,0,"a.sham","no_press",0,"NGL","noGo",1,256,"4",6,"neutral","Avoid",NA
"257","BNVN0020",14,16,13,14,15,2063,625,0,0,"a.sham","no_press",0,"NGW","noGo",1,257,"4",5,"neutral","Win",NA
"258","BNVN0020",16,16,13,14,15,1855,934,566,1,"a.sham","press",1,"GW","Go",1,258,"4",4,"win","Win","win"
"259","BNVN0020",15,16,13,14,15,1772,645,0,0,"a.sham","no_press",0,"NGL","noGo",1,259,"4",7,"neutral","Avoid",NA
"260","BNVN0020",13,16,13,14,15,1630,660,0,-1,"a.sham","no_press",0,"GAL","Go",0,260,"4",4,"lose","Avoid","lose"
"261","BNVN0020",15,16,13,14,15,2084,570,0,0,"a.sham","no_press",0,"NGL","noGo",1,261,"4",8,"neutral","Avoid",NA
"262","BNVN0020",13,16,13,14,15,2018,955,0,-1,"a.sham","no_press",0,"GAL","Go",0,262,"4",5,"lose","Avoid","lose"
"263","BNVN0020",16,16,13,14,15,2381,643,663,1,"a.sham","press",1,"GW","Go",1,263,"4",5,"win","Win","win"
"264","BNVN0020",13,16,13,14,15,3099,550,999,0,"a.sham","press",1,"GAL","Go",1,264,"4",6,"neutral","Avoid",NA
"265","BNVN0020",13,16,13,14,15,1825,598,536,-1,"a.sham","press",1,"GAL","Go",1,265,"4",7,"lose","Avoid","lose"
"266","BNVN0020",16,16,13,14,15,2402,775,514,1,"a.sham","press",1,"GW","Go",1,266,"4",6,"win","Win","win"
"267","BNVN0020",15,16,13,14,15,2348,591,0,0,"a.sham","no_press",0,"NGL","noGo",1,267,"4",9,"neutral","Avoid",NA
"268","BNVN0020",14,16,13,14,15,2357,966,867,0,"a.sham","press",1,"NGW","noGo",0,268,"4",6,"neutral","Win",NA
"269","BNVN0020",16,16,13,14,15,2228,968,638,1,"a.sham","press",1,"GW","Go",1,269,"4",7,"win","Win","win"
"270","BNVN0020",15,16,13,14,15,2237,541,0,-1,"a.sham","no_press",0,"NGL","noGo",1,270,"4",10,"lose","Avoid","lose"
"271","BNVN0020",14,16,13,14,15,2695,665,976,0,"a.sham","press",1,"NGW","noGo",0,271,"4",7,"neutral","Win",NA
"272","BNVN0020",14,16,13,14,15,3626,871,0,1,"a.sham","no_press",0,"NGW","noGo",1,272,"4",8,"win","Win","win"
"273","BNVN0020",15,16,13,14,15,1861,748,0,0,"a.sham","no_press",0,"NGL","noGo",1,273,"4",11,"neutral","Avoid",NA
"274","BNVN0020",13,16,13,14,15,2139,811,0,-1,"a.sham","no_press",0,"GAL","Go",0,274,"4",8,"lose","Avoid","lose"
"275","BNVN0020",16,16,13,14,15,2044,611,683,1,"a.sham","press",1,"GW","Go",1,275,"4",8,"win","Win","win"
"276","BNVN0020",15,16,13,14,15,2319,797,0,0,"a.sham","no_press",0,"NGL","noGo",1,276,"4",12,"neutral","Avoid",NA
"277","BNVN0020",16,16,13,14,15,2446,855,701,1,"a.sham","press",1,"GW","Go",1,277,"4",9,"win","Win","win"
"278","BNVN0020",15,16,13,14,15,2227,989,0,0,"a.sham","no_press",0,"NGL","noGo",1,278,"4",13,"neutral","Avoid",NA
"279","BNVN0020",16,16,13,14,15,1880,832,536,1,"a.sham","press",1,"GW","Go",1,279,"4",10,"win","Win","win"
"280","BNVN0020",16,16,13,14,15,1798,501,633,0,"a.sham","press",1,"GW","Go",1,280,"4",11,"neutral","Win",NA
"281","BNVN0020",14,16,13,14,15,2511,981,995,0,"a.sham","press",1,"NGW","noGo",0,281,"4",9,"neutral","Win",NA
"282","BNVN0020",15,16,13,14,15,2277,902,0,0,"a.sham","no_press",0,"NGL","noGo",1,282,"4",14,"neutral","Avoid",NA
"283","BNVN0020",15,16,13,14,15,1240,943,0,-1,"a.sham","no_press",0,"NGL","noGo",1,283,"4",15,"lose","Avoid","lose"
"284","BNVN0020",14,16,13,14,15,2692,677,663,0,"a.sham","press",1,"NGW","noGo",0,284,"4",10,"neutral","Win",NA
"285","BNVN0020",14,16,13,14,15,1678,753,0,1,"a.sham","no_press",0,"NGW","noGo",1,285,"4",11,"win","Win","win"
"286","BNVN0020",14,16,13,14,15,1771,635,0,1,"a.sham","no_press",0,"NGW","noGo",1,286,"4",12,"win","Win","win"
"287","BNVN0020",13,16,13,14,15,1885,578,854,0,"a.sham","press",1,"GAL","Go",1,287,"4",9,"neutral","Avoid",NA
"288","BNVN0020",14,16,13,14,15,1909,851,0,1,"a.sham","no_press",0,"NGW","noGo",1,288,"4",13,"win","Win","win"
"289","BNVN0020",14,16,13,14,15,1537,532,0,1,"a.sham","no_press",0,"NGW","noGo",1,289,"4",14,"win","Win","win"
"290","BNVN0020",13,16,13,14,15,1206,575,0,-1,"a.sham","no_press",0,"GAL","Go",0,290,"4",10,"lose","Avoid","lose"
"291","BNVN0020",15,16,13,14,15,2195,614,0,-1,"a.sham","no_press",0,"NGL","noGo",1,291,"4",16,"lose","Avoid","lose"
"292","BNVN0020",16,16,13,14,15,1543,525,586,1,"a.sham","press",1,"GW","Go",1,292,"4",12,"win","Win","win"
"293","BNVN0020",16,16,13,14,15,2057,758,799,1,"a.sham","press",1,"GW","Go",1,293,"4",13,"win","Win","win"
"294","BNVN0020",14,16,13,14,15,1196,813,0,0,"a.sham","no_press",0,"NGW","noGo",1,294,"4",15,"neutral","Win",NA
"295","BNVN0020",15,16,13,14,15,1462,770,0,0,"a.sham","no_press",0,"NGL","noGo",1,295,"4",17,"neutral","Avoid",NA
"296","BNVN0020",14,16,13,14,15,1743,521,0,1,"a.sham","no_press",0,"NGW","noGo",1,296,"4",16,"win","Win","win"
"297","BNVN0020",14,16,13,14,15,1504,923,0,0,"a.sham","no_press",0,"NGW","noGo",1,297,"4",17,"neutral","Win",NA
"298","BNVN0020",13,16,13,14,15,1964,670,970,0,"a.sham","press",1,"GAL","Go",1,298,"4",11,"neutral","Avoid",NA
"299","BNVN0020",13,16,13,14,15,2041,703,774,0,"a.sham","press",1,"GAL","Go",1,299,"4",12,"neutral","Avoid",NA
"300","BNVN0020",13,16,13,14,15,1953,531,898,-1,"a.sham","press",1,"GAL","Go",1,300,"4",13,"lose","Avoid","lose"
"301","BNVN0020",13,16,13,14,15,2026,836,634,0,"a.sham","press",1,"GAL","Go",1,301,"4",14,"neutral","Avoid",NA
"302","BNVN0020",15,16,13,14,15,2234,740,0,-1,"a.sham","no_press",0,"NGL","noGo",1,302,"4",18,"lose","Avoid","lose"
"303","BNVN0020",13,16,13,14,15,1189,981,682,0,"a.sham","press",1,"GAL","Go",1,303,"4",15,"neutral","Avoid",NA
"304","BNVN0020",16,16,13,14,15,1479,865,583,0,"a.sham","press",1,"GW","Go",1,304,"4",14,"neutral","Win",NA
"305","BNVN0020",13,16,13,14,15,1000,573,899,0,"a.sham","press",1,"GAL","Go",1,305,"4",16,"neutral","Avoid",NA
"306","BNVN0020",13,16,13,14,15,2448,766,649,0,"a.sham","press",1,"GAL","Go",1,306,"4",17,"neutral","Avoid",NA
"307","BNVN0020",14,16,13,14,15,3515,968,716,0,"a.sham","press",1,"NGW","noGo",0,307,"4",18,"neutral","Win",NA
"308","BNVN0020",15,16,13,14,15,2080,843,0,0,"a.sham","no_press",0,"NGL","noGo",1,308,"4",19,"neutral","Avoid",NA
"309","BNVN0020",16,16,13,14,15,1666,773,646,1,"a.sham","press",1,"GW","Go",1,309,"4",15,"win","Win","win"
"310","BNVN0020",13,16,13,14,15,2977,616,789,0,"a.sham","press",1,"GAL","Go",1,310,"4",18,"neutral","Avoid",NA
"311","BNVN0020",15,16,13,14,15,1615,728,0,0,"a.sham","no_press",0,"NGL","noGo",1,311,"4",20,"neutral","Avoid",NA
"312","BNVN0020",16,16,13,14,15,1266,686,620,1,"a.sham","press",1,"GW","Go",1,312,"4",16,"win","Win","win"
"313","BNVN0020",16,16,13,14,15,1848,826,656,1,"a.sham","press",1,"GW","Go",1,313,"4",17,"win","Win","win"
"314","BNVN0020",13,16,13,14,15,1634,911,1346,0,"a.sham","press",1,"GAL","Go",1,314,"4",19,"neutral","Avoid",NA
"315","BNVN0020",16,16,13,14,15,2032,576,569,1,"a.sham","press",1,"GW","Go",1,315,"4",18,"win","Win","win"
"316","BNVN0020",13,16,13,14,15,2372,947,1375,0,"a.sham","press",1,"GAL","Go",1,316,"4",20,"neutral","Avoid",NA
"317","BNVN0020",14,16,13,14,15,2239,644,674,0,"a.sham","press",1,"NGW","noGo",0,317,"4",19,"neutral","Win",NA
"318","BNVN0020",16,16,13,14,15,2367,900,549,0,"a.sham","press",1,"GW","Go",1,318,"4",19,"neutral","Win",NA
"319","BNVN0020",14,16,13,14,15,2126,913,0,1,"a.sham","no_press",0,"NGW","noGo",1,319,"4",20,"win","Win","win"
"320","BNVN0020",16,16,13,14,15,1965,875,626,1,"a.sham","press",1,"GW","Go",1,320,"4",20,"win","Win","win"
"321","EEMR0429",2,4,3,2,1,2251,782,0,1,"a.sham","no_press",0,"NGW","noGo",1,1,"1",1,"win","Win","win"
"322","EEMR0429",3,4,3,2,1,1988,883,0,-1,"a.sham","no_press",0,"GAL","Go",0,2,"1",1,"lose","Avoid","lose"
"323","EEMR0429",1,4,3,2,1,2324,962,0,0,"a.sham","no_press",0,"NGL","noGo",1,3,"1",1,"neutral","Avoid",NA
"324","EEMR0429",4,4,3,2,1,1743,914,0,0,"a.sham","no_press",0,"GW","Go",0,4,"1",1,"neutral","Win",NA
"325","EEMR0429",1,4,3,2,1,2039,832,0,-1,"a.sham","no_press",0,"NGL","noGo",1,5,"1",2,"lose","Avoid","lose"
"326","EEMR0429",2,4,3,2,1,1573,910,0,1,"a.sham","no_press",0,"NGW","noGo",1,6,"1",2,"win","Win","win"
"327","EEMR0429",4,4,3,2,1,1246,880,0,0,"a.sham","no_press",0,"GW","Go",0,7,"1",2,"neutral","Win",NA
"328","EEMR0429",3,4,3,2,1,2671,662,652,0,"a.sham","press",1,"GAL","Go",1,8,"1",2,"neutral","Avoid",NA
"329","EEMR0429",3,4,3,2,1,1510,891,751,0,"a.sham","press",1,"GAL","Go",1,9,"1",3,"neutral","Avoid",NA
"330","EEMR0429",2,4,3,2,1,2065,935,0,1,"a.sham","no_press",0,"NGW","noGo",1,10,"1",3,"win","Win","win"
"331","EEMR0429",1,4,3,2,1,2243,828,602,-1,"a.sham","press",1,"NGL","noGo",0,11,"1",3,"lose","Avoid","lose"
"332","EEMR0429",4,4,3,2,1,1861,788,0,1,"a.sham","no_press",0,"GW","Go",0,12,"1",3,"win","Win","win"
"333","EEMR0429",1,4,3,2,1,1474,864,365,-1,"a.sham","press",1,"NGL","noGo",0,13,"1",4,"lose","Avoid","lose"
"334","EEMR0429",3,4,3,2,1,2151,543,541,0,"a.sham","press",1,"GAL","Go",1,14,"1",4,"neutral","Avoid",NA
"335","EEMR0429",4,4,3,2,1,1610,554,0,0,"a.sham","no_press",0,"GW","Go",0,15,"1",4,"neutral","Win",NA
"336","EEMR0429",2,4,3,2,1,1212,735,0,0,"a.sham","no_press",0,"NGW","noGo",1,16,"1",4,"neutral","Win",NA
"337","EEMR0429",2,4,3,2,1,1286,960,0,1,"a.sham","no_press",0,"NGW","noGo",1,17,"1",5,"win","Win","win"
"338","EEMR0429",2,4,3,2,1,2374,521,0,1,"a.sham","no_press",0,"NGW","noGo",1,18,"1",6,"win","Win","win"
"339","EEMR0429",1,4,3,2,1,1478,615,713,-1,"a.sham","press",1,"NGL","noGo",0,19,"1",5,"lose","Avoid","lose"
"340","EEMR0429",4,4,3,2,1,2678,851,0,0,"a.sham","no_press",0,"GW","Go",0,20,"1",5,"neutral","Win",NA
"341","EEMR0429",3,4,3,2,1,2305,710,446,0,"a.sham","press",1,"GAL","Go",1,21,"1",5,"neutral","Avoid",NA
"342","EEMR0429",4,4,3,2,1,1386,709,0,0,"a.sham","no_press",0,"GW","Go",0,22,"1",6,"neutral","Win",NA
"343","EEMR0429",2,4,3,2,1,2121,706,0,1,"a.sham","no_press",0,"NGW","noGo",1,23,"1",7,"win","Win","win"
"344","EEMR0429",2,4,3,2,1,2040,961,0,1,"a.sham","no_press",0,"NGW","noGo",1,24,"1",8,"win","Win","win"
"345","EEMR0429",1,4,3,2,1,1439,547,0,0,"a.sham","no_press",0,"NGL","noGo",1,25,"1",6,"neutral","Avoid",NA
"346","EEMR0429",1,4,3,2,1,1755,763,0,0,"a.sham","no_press",0,"NGL","noGo",1,26,"1",7,"neutral","Avoid",NA
"347","EEMR0429",1,4,3,2,1,2202,580,0,-1,"a.sham","no_press",0,"NGL","noGo",1,27,"1",8,"lose","Avoid","lose"
"348","EEMR0429",1,4,3,2,1,2295,841,0,0,"a.sham","no_press",0,"NGL","noGo",1,28,"1",9,"neutral","Avoid",NA
"349","EEMR0429",3,4,3,2,1,1485,870,535,-1,"a.sham","press",1,"GAL","Go",1,29,"1",6,"lose","Avoid","lose"
"350","EEMR0429",4,4,3,2,1,3219,927,0,0,"a.sham","no_press",0,"GW","Go",0,30,"1",7,"neutral","Win",NA
"351","EEMR0429",4,4,3,2,1,2572,724,0,0,"a.sham","no_press",0,"GW","Go",0,31,"1",8,"neutral","Win",NA
"352","EEMR0429",1,4,3,2,1,2140,728,0,0,"a.sham","no_press",0,"NGL","noGo",1,32,"1",10,"neutral","Avoid",NA
"353","EEMR0429",2,4,3,2,1,2822,752,0,1,"a.sham","no_press",0,"NGW","noGo",1,33,"1",9,"win","Win","win"
"354","EEMR0429",4,4,3,2,1,1600,634,0,1,"a.sham","no_press",0,"GW","Go",0,34,"1",9,"win","Win","win"
"355","EEMR0429",3,4,3,2,1,1874,938,387,0,"a.sham","press",1,"GAL","Go",1,35,"1",7,"neutral","Avoid",NA
"356","EEMR0429",2,4,3,2,1,1539,816,0,0,"a.sham","no_press",0,"NGW","noGo",1,36,"1",10,"neutral","Win",NA
"357","EEMR0429",3,4,3,2,1,1851,779,0,-1,"a.sham","no_press",0,"GAL","Go",0,37,"1",8,"lose","Avoid","lose"
"358","EEMR0429",2,4,3,2,1,1782,905,0,1,"a.sham","no_press",0,"NGW","noGo",1,38,"1",11,"win","Win","win"
"359","EEMR0429",3,4,3,2,1,1874,644,545,-1,"a.sham","press",1,"GAL","Go",1,39,"1",9,"lose","Avoid","lose"
"360","EEMR0429",2,4,3,2,1,2527,615,0,1,"a.sham","no_press",0,"NGW","noGo",1,40,"1",12,"win","Win","win"
"361","EEMR0429",4,4,3,2,1,1638,854,0,1,"a.sham","no_press",0,"GW","Go",0,41,"1",10,"win","Win","win"
"362","EEMR0429",1,4,3,2,1,1985,997,0,0,"a.sham","no_press",0,"NGL","noGo",1,42,"1",11,"neutral","Avoid",NA
"363","EEMR0429",3,4,3,2,1,2592,877,495,-1,"a.sham","press",1,"GAL","Go",1,43,"1",10,"lose","Avoid","lose"
"364","EEMR0429",2,4,3,2,1,1871,573,0,1,"a.sham","no_press",0,"NGW","noGo",1,44,"1",13,"win","Win","win"
"365","EEMR0429",1,4,3,2,1,3539,791,0,0,"a.sham","no_press",0,"NGL","noGo",1,45,"1",12,"neutral","Avoid",NA
"366","EEMR0429",1,4,3,2,1,1576,989,0,0,"a.sham","no_press",0,"NGL","noGo",1,46,"1",13,"neutral","Avoid",NA
"367","EEMR0429",3,4,3,2,1,2420,685,424,0,"a.sham","press",1,"GAL","Go",1,47,"1",11,"neutral","Avoid",NA
"368","EEMR0429",3,4,3,2,1,2298,933,494,0,"a.sham","press",1,"GAL","Go",1,48,"1",12,"neutral","Avoid",NA
"369","EEMR0429",1,4,3,2,1,1979,853,0,0,"a.sham","no_press",0,"NGL","noGo",1,49,"1",14,"neutral","Avoid",NA
"370","EEMR0429",3,4,3,2,1,2572,547,445,0,"a.sham","press",1,"GAL","Go",1,50,"1",13,"neutral","Avoid",NA
"371","EEMR0429",3,4,3,2,1,1504,541,451,0,"a.sham","press",1,"GAL","Go",1,51,"1",14,"neutral","Avoid",NA
"372","EEMR0429",3,4,3,2,1,1779,512,374,0,"a.sham","press",1,"GAL","Go",1,52,"1",15,"neutral","Avoid",NA
"373","EEMR0429",1,4,3,2,1,1000,904,0,-1,"a.sham","no_press",0,"NGL","noGo",1,53,"1",15,"lose","Avoid","lose"
"374","EEMR0429",4,4,3,2,1,2180,898,0,0,"a.sham","no_press",0,"GW","Go",0,54,"1",11,"neutral","Win",NA
"375","EEMR0429",2,4,3,2,1,1720,721,0,1,"a.sham","no_press",0,"NGW","noGo",1,55,"1",14,"win","Win","win"
"376","EEMR0429",2,4,3,2,1,2009,805,0,1,"a.sham","no_press",0,"NGW","noGo",1,56,"1",15,"win","Win","win"
"377","EEMR0429",4,4,3,2,1,1892,631,0,0,"a.sham","no_press",0,"GW","Go",0,57,"1",12,"neutral","Win",NA
"378","EEMR0429",4,4,3,2,1,2649,768,0,0,"a.sham","no_press",0,"GW","Go",0,58,"1",13,"neutral","Win",NA
"379","EEMR0429",2,4,3,2,1,1330,510,0,0,"a.sham","no_press",0,"NGW","noGo",1,59,"1",16,"neutral","Win",NA
"380","EEMR0429",2,4,3,2,1,2587,657,0,1,"a.sham","no_press",0,"NGW","noGo",1,60,"1",17,"win","Win","win"
"381","EEMR0429",3,4,3,2,1,2276,750,481,-1,"a.sham","press",1,"GAL","Go",1,61,"1",16,"lose","Avoid","lose"
"382","EEMR0429",2,4,3,2,1,1469,615,0,1,"a.sham","no_press",0,"NGW","noGo",1,62,"1",18,"win","Win","win"
"383","EEMR0429",1,4,3,2,1,1960,941,0,0,"a.sham","no_press",0,"NGL","noGo",1,63,"1",16,"neutral","Avoid",NA
"384","EEMR0429",2,4,3,2,1,2355,967,0,0,"a.sham","no_press",0,"NGW","noGo",1,64,"1",19,"neutral","Win",NA
"385","EEMR0429",3,4,3,2,1,2599,699,446,0,"a.sham","press",1,"GAL","Go",1,65,"1",17,"neutral","Avoid",NA
"386","EEMR0429",4,4,3,2,1,3460,914,0,0,"a.sham","no_press",0,"GW","Go",0,66,"1",14,"neutral","Win",NA
"387","EEMR0429",3,4,3,2,1,1522,525,445,0,"a.sham","press",1,"GAL","Go",1,67,"1",18,"neutral","Avoid",NA
"388","EEMR0429",1,4,3,2,1,1502,567,0,0,"a.sham","no_press",0,"NGL","noGo",1,68,"1",17,"neutral","Avoid",NA
"389","EEMR0429",3,4,3,2,1,2422,994,506,0,"a.sham","press",1,"GAL","Go",1,69,"1",19,"neutral","Avoid",NA
"390","EEMR0429",4,4,3,2,1,1733,695,0,0,"a.sham","no_press",0,"GW","Go",0,70,"1",15,"neutral","Win",NA
"391","EEMR0429",4,4,3,2,1,1000,985,0,0,"a.sham","no_press",0,"GW","Go",0,71,"1",16,"neutral","Win",NA
"392","EEMR0429",4,4,3,2,1,1268,557,0,0,"a.sham","no_press",0,"GW","Go",0,72,"1",17,"neutral","Win",NA
"393","EEMR0429",4,4,3,2,1,1989,867,0,0,"a.sham","no_press",0,"GW","Go",0,73,"1",18,"neutral","Win",NA
"394","EEMR0429",1,4,3,2,1,2403,745,0,0,"a.sham","no_press",0,"NGL","noGo",1,74,"1",18,"neutral","Avoid",NA
"395","EEMR0429",4,4,3,2,1,2583,617,0,0,"a.sham","no_press",0,"GW","Go",0,75,"1",19,"neutral","Win",NA
"396","EEMR0429",1,4,3,2,1,2147,753,0,0,"a.sham","no_press",0,"NGL","noGo",1,76,"1",19,"neutral","Avoid",NA
"397","EEMR0429",4,4,3,2,1,2354,717,0,1,"a.sham","no_press",0,"GW","Go",0,77,"1",20,"win","Win","win"
"398","EEMR0429",2,4,3,2,1,1770,920,0,1,"a.sham","no_press",0,"NGW","noGo",1,78,"1",20,"win","Win","win"
"399","EEMR0429",3,4,3,2,1,2247,677,722,0,"a.sham","press",1,"GAL","Go",1,79,"1",20,"neutral","Avoid",NA
"400","EEMR0429",1,4,3,2,1,1614,899,0,0,"a.sham","no_press",0,"NGL","noGo",1,80,"1",20,"neutral","Avoid",NA
"401","EEMR0429",5,8,5,6,7,2107,856,0,-1,"a.sham","no_press",0,"GAL","Go",0,81,"2",1,"lose","Avoid","lose"
"402","EEMR0429",5,8,5,6,7,1710,976,790,0,"a.sham","press",1,"GAL","Go",1,82,"2",2,"neutral","Avoid",NA
"403","EEMR0429",7,8,5,6,7,3107,772,0,0,"a.sham","no_press",0,"NGL","noGo",1,83,"2",1,"neutral","Avoid",NA
"404","EEMR0429",7,8,5,6,7,2074,588,0,0,"a.sham","no_press",0,"NGL","noGo",1,84,"2",2,"neutral","Avoid",NA
"405","EEMR0429",8,8,5,6,7,1636,628,0,0,"a.sham","no_press",0,"GW","Go",0,85,"2",1,"neutral","Win",NA
"406","EEMR0429",7,8,5,6,7,1823,990,0,0,"a.sham","no_press",0,"NGL","noGo",1,86,"2",3,"neutral","Avoid",NA
"407","EEMR0429",6,8,5,6,7,1480,836,0,1,"a.sham","no_press",0,"NGW","noGo",1,87,"2",1,"win","Win","win"
"408","EEMR0429",5,8,5,6,7,1611,772,562,0,"a.sham","press",1,"GAL","Go",1,88,"2",3,"neutral","Avoid",NA
"409","EEMR0429",7,8,5,6,7,2564,678,0,-1,"a.sham","no_press",0,"NGL","noGo",1,89,"2",4,"lose","Avoid","lose"
"410","EEMR0429",5,8,5,6,7,1379,839,656,0,"a.sham","press",1,"GAL","Go",1,90,"2",4,"neutral","Avoid",NA
"411","EEMR0429",5,8,5,6,7,1400,730,690,0,"a.sham","press",1,"GAL","Go",1,91,"2",5,"neutral","Avoid",NA
"412","EEMR0429",6,8,5,6,7,1510,573,0,1,"a.sham","no_press",0,"NGW","noGo",1,92,"2",2,"win","Win","win"
"413","EEMR0429",8,8,5,6,7,1528,542,0,0,"a.sham","no_press",0,"GW","Go",0,93,"2",2,"neutral","Win",NA
"414","EEMR0429",7,8,5,6,7,2173,931,0,0,"a.sham","no_press",0,"NGL","noGo",1,94,"2",5,"neutral","Avoid",NA
"415","EEMR0429",5,8,5,6,7,3147,561,558,-1,"a.sham","press",1,"GAL","Go",1,95,"2",6,"lose","Avoid","lose"
"416","EEMR0429",6,8,5,6,7,1967,608,0,1,"a.sham","no_press",0,"NGW","noGo",1,96,"2",3,"win","Win","win"
"417","EEMR0429",8,8,5,6,7,1526,936,0,0,"a.sham","no_press",0,"GW","Go",0,97,"2",3,"neutral","Win",NA
"418","EEMR0429",7,8,5,6,7,2211,932,0,0,"a.sham","no_press",0,"NGL","noGo",1,98,"2",6,"neutral","Avoid",NA
"419","EEMR0429",6,8,5,6,7,1792,500,0,1,"a.sham","no_press",0,"NGW","noGo",1,99,"2",4,"win","Win","win"
"420","EEMR0429",8,8,5,6,7,2020,758,0,0,"a.sham","no_press",0,"GW","Go",0,100,"2",4,"neutral","Win",NA
"421","EEMR0429",6,8,5,6,7,1841,800,0,1,"a.sham","no_press",0,"NGW","noGo",1,101,"2",5,"win","Win","win"
"422","EEMR0429",7,8,5,6,7,1427,805,0,0,"a.sham","no_press",0,"NGL","noGo",1,102,"2",7,"neutral","Avoid",NA
"423","EEMR0429",6,8,5,6,7,2767,689,0,1,"a.sham","no_press",0,"NGW","noGo",1,103,"2",6,"win","Win","win"
"424","EEMR0429",6,8,5,6,7,2936,611,0,1,"a.sham","no_press",0,"NGW","noGo",1,104,"2",7,"win","Win","win"
"425","EEMR0429",7,8,5,6,7,2958,727,0,0,"a.sham","no_press",0,"NGL","noGo",1,105,"2",8,"neutral","Avoid",NA
"426","EEMR0429",7,8,5,6,7,1666,857,0,-1,"a.sham","no_press",0,"NGL","noGo",1,106,"2",9,"lose","Avoid","lose"
"427","EEMR0429",8,8,5,6,7,2898,732,0,0,"a.sham","no_press",0,"GW","Go",0,107,"2",5,"neutral","Win",NA
"428","EEMR0429",5,8,5,6,7,2442,628,363,-1,"a.sham","press",1,"GAL","Go",1,108,"2",7,"lose","Avoid","lose"
"429","EEMR0429",8,8,5,6,7,2209,529,0,0,"a.sham","no_press",0,"GW","Go",0,109,"2",6,"neutral","Win",NA
"430","EEMR0429",7,8,5,6,7,2365,718,0,0,"a.sham","no_press",0,"NGL","noGo",1,110,"2",10,"neutral","Avoid",NA
"431","EEMR0429",8,8,5,6,7,1833,504,0,0,"a.sham","no_press",0,"GW","Go",0,111,"2",7,"neutral","Win",NA
"432","EEMR0429",6,8,5,6,7,1503,523,0,0,"a.sham","no_press",0,"NGW","noGo",1,112,"2",8,"neutral","Win",NA
"433","EEMR0429",8,8,5,6,7,2054,642,0,0,"a.sham","no_press",0,"GW","Go",0,113,"2",8,"neutral","Win",NA
"434","EEMR0429",6,8,5,6,7,2566,814,0,1,"a.sham","no_press",0,"NGW","noGo",1,114,"2",9,"win","Win","win"
"435","EEMR0429",6,8,5,6,7,2484,935,0,1,"a.sham","no_press",0,"NGW","noGo",1,115,"2",10,"win","Win","win"
"436","EEMR0429",6,8,5,6,7,1368,977,0,1,"a.sham","no_press",0,"NGW","noGo",1,116,"2",11,"win","Win","win"
"437","EEMR0429",6,8,5,6,7,3024,730,0,0,"a.sham","no_press",0,"NGW","noGo",1,117,"2",12,"neutral","Win",NA
"438","EEMR0429",5,8,5,6,7,1205,844,475,0,"a.sham","press",1,"GAL","Go",1,118,"2",8,"neutral","Avoid",NA
"439","EEMR0429",8,8,5,6,7,1544,509,0,1,"a.sham","no_press",0,"GW","Go",0,119,"2",9,"win","Win","win"
"440","EEMR0429",6,8,5,6,7,3367,874,0,1,"a.sham","no_press",0,"NGW","noGo",1,120,"2",13,"win","Win","win"
"441","EEMR0429",8,8,5,6,7,2293,921,0,0,"a.sham","no_press",0,"GW","Go",0,121,"2",10,"neutral","Win",NA
"442","EEMR0429",7,8,5,6,7,2413,912,0,0,"a.sham","no_press",0,"NGL","noGo",1,122,"2",11,"neutral","Avoid",NA
"443","EEMR0429",7,8,5,6,7,2336,709,0,-1,"a.sham","no_press",0,"NGL","noGo",1,123,"2",12,"lose","Avoid","lose"
"444","EEMR0429",8,8,5,6,7,1342,772,0,0,"a.sham","no_press",0,"GW","Go",0,124,"2",11,"neutral","Win",NA
"445","EEMR0429",8,8,5,6,7,2173,601,0,0,"a.sham","no_press",0,"GW","Go",0,125,"2",12,"neutral","Win",NA
"446","EEMR0429",8,8,5,6,7,1922,855,0,1,"a.sham","no_press",0,"GW","Go",0,126,"2",13,"win","Win","win"
"447","EEMR0429",8,8,5,6,7,1782,823,0,0,"a.sham","no_press",0,"GW","Go",0,127,"2",14,"neutral","Win",NA
"448","EEMR0429",6,8,5,6,7,1575,963,0,1,"a.sham","no_press",0,"NGW","noGo",1,128,"2",14,"win","Win","win"
"449","EEMR0429",7,8,5,6,7,3435,943,0,-1,"a.sham","no_press",0,"NGL","noGo",1,129,"2",13,"lose","Avoid","lose"
"450","EEMR0429",6,8,5,6,7,2255,512,0,1,"a.sham","no_press",0,"NGW","noGo",1,130,"2",15,"win","Win","win"
"451","EEMR0429",5,8,5,6,7,2260,530,454,-1,"a.sham","press",1,"GAL","Go",1,131,"2",9,"lose","Avoid","lose"
"452","EEMR0429",5,8,5,6,7,2521,601,368,0,"a.sham","press",1,"GAL","Go",1,132,"2",10,"neutral","Avoid",NA
"453","EEMR0429",5,8,5,6,7,1758,817,480,0,"a.sham","press",1,"GAL","Go",1,133,"2",11,"neutral","Avoid",NA
"454","EEMR0429",7,8,5,6,7,2232,734,0,0,"a.sham","no_press",0,"NGL","noGo",1,134,"2",14,"neutral","Avoid",NA
"455","EEMR0429",8,8,5,6,7,1736,726,0,0,"a.sham","no_press",0,"GW","Go",0,135,"2",15,"neutral","Win",NA
"456","EEMR0429",8,8,5,6,7,1500,664,0,1,"a.sham","no_press",0,"GW","Go",0,136,"2",16,"win","Win","win"
"457","EEMR0429",7,8,5,6,7,1556,648,0,0,"a.sham","no_press",0,"NGL","noGo",1,137,"2",15,"neutral","Avoid",NA
"458","EEMR0429",7,8,5,6,7,3094,954,0,0,"a.sham","no_press",0,"NGL","noGo",1,138,"2",16,"neutral","Avoid",NA
"459","EEMR0429",8,8,5,6,7,1669,944,0,0,"a.sham","no_press",0,"GW","Go",0,139,"2",17,"neutral","Win",NA
"460","EEMR0429",5,8,5,6,7,1811,940,431,0,"a.sham","press",1,"GAL","Go",1,140,"2",12,"neutral","Avoid",NA
"461","EEMR0429",5,8,5,6,7,1382,904,350,0,"a.sham","press",1,"GAL","Go",1,141,"2",13,"neutral","Avoid",NA
"462","EEMR0429",8,8,5,6,7,1615,898,0,0,"a.sham","no_press",0,"GW","Go",0,142,"2",18,"neutral","Win",NA
"463","EEMR0429",5,8,5,6,7,2734,765,495,0,"a.sham","press",1,"GAL","Go",1,143,"2",14,"neutral","Avoid",NA
"464","EEMR0429",5,8,5,6,7,2926,665,473,0,"a.sham","press",1,"GAL","Go",1,144,"2",15,"neutral","Avoid",NA
"465","EEMR0429",6,8,5,6,7,2185,770,0,0,"a.sham","no_press",0,"NGW","noGo",1,145,"2",16,"neutral","Win",NA
"466","EEMR0429",8,8,5,6,7,5000,790,0,0,"a.sham","no_press",0,"GW","Go",0,146,"2",19,"neutral","Win",NA
"467","EEMR0429",7,8,5,6,7,2460,780,0,0,"a.sham","no_press",0,"NGL","noGo",1,147,"2",17,"neutral","Avoid",NA
"468","EEMR0429",5,8,5,6,7,1551,798,454,0,"a.sham","press",1,"GAL","Go",1,148,"2",16,"neutral","Avoid",NA
"469","EEMR0429",6,8,5,6,7,1820,914,0,1,"a.sham","no_press",0,"NGW","noGo",1,149,"2",17,"win","Win","win"
"470","EEMR0429",7,8,5,6,7,2057,750,0,0,"a.sham","no_press",0,"NGL","noGo",1,150,"2",18,"neutral","Avoid",NA
"471","EEMR0429",7,8,5,6,7,2435,698,0,0,"a.sham","no_press",0,"NGL","noGo",1,151,"2",19,"neutral","Avoid",NA
"472","EEMR0429",5,8,5,6,7,2763,828,384,0,"a.sham","press",1,"GAL","Go",1,152,"2",17,"neutral","Avoid",NA
"473","EEMR0429",6,8,5,6,7,1815,881,0,1,"a.sham","no_press",0,"NGW","noGo",1,153,"2",18,"win","Win","win"
"474","EEMR0429",5,8,5,6,7,1585,694,485,0,"a.sham","press",1,"GAL","Go",1,154,"2",18,"neutral","Avoid",NA
"475","EEMR0429",5,8,5,6,7,1198,799,322,0,"a.sham","press",1,"GAL","Go",1,155,"2",19,"neutral","Avoid",NA
"476","EEMR0429",5,8,5,6,7,1349,691,401,0,"a.sham","press",1,"GAL","Go",1,156,"2",20,"neutral","Avoid",NA
"477","EEMR0429",8,8,5,6,7,2107,663,0,1,"a.sham","no_press",0,"GW","Go",0,157,"2",20,"win","Win","win"
"478","EEMR0429",6,8,5,6,7,1919,716,0,1,"a.sham","no_press",0,"NGW","noGo",1,158,"2",19,"win","Win","win"
"479","EEMR0429",6,8,5,6,7,1997,873,0,0,"a.sham","no_press",0,"NGW","noGo",1,159,"2",20,"neutral","Win",NA
"480","EEMR0429",7,8,5,6,7,1474,559,0,0,"a.sham","no_press",0,"NGL","noGo",1,160,"2",20,"neutral","Avoid",NA
"481","EEMR0429",11,10,9,12,11,2138,890,0,0,"a.sham","no_press",0,"NGL","noGo",1,161,"3",1,"neutral","Avoid",NA
"482","EEMR0429",12,10,9,12,11,1900,974,0,1,"a.sham","no_press",0,"NGW","noGo",1,162,"3",1,"win","Win","win"
"483","EEMR0429",9,10,9,12,11,2089,870,0,-1,"a.sham","no_press",0,"GAL","Go",0,163,"3",1,"lose","Avoid","lose"
"484","EEMR0429",11,10,9,12,11,1873,964,0,0,"a.sham","no_press",0,"NGL","noGo",1,164,"3",2,"neutral","Avoid",NA
"485","EEMR0429",12,10,9,12,11,2008,701,0,1,"a.sham","no_press",0,"NGW","noGo",1,165,"3",2,"win","Win","win"
"486","EEMR0429",10,10,9,12,11,2581,679,0,0,"a.sham","no_press",0,"GW","Go",0,166,"3",1,"neutral","Win",NA
"487","EEMR0429",10,10,9,12,11,1461,734,0,0,"a.sham","no_press",0,"GW","Go",0,167,"3",2,"neutral","Win",NA
"488","EEMR0429",9,10,9,12,11,1660,880,589,0,"a.sham","press",1,"GAL","Go",1,168,"3",2,"neutral","Avoid",NA
"489","EEMR0429",10,10,9,12,11,2640,983,0,1,"a.sham","no_press",0,"GW","Go",0,169,"3",3,"win","Win","win"
"490","EEMR0429",9,10,9,12,11,1743,819,595,0,"a.sham","press",1,"GAL","Go",1,170,"3",3,"neutral","Avoid",NA
"491","EEMR0429",11,10,9,12,11,2031,666,0,0,"a.sham","no_press",0,"NGL","noGo",1,171,"3",3,"neutral","Avoid",NA
"492","EEMR0429",9,10,9,12,11,1838,613,624,0,"a.sham","press",1,"GAL","Go",1,172,"3",4,"neutral","Avoid",NA
"493","EEMR0429",9,10,9,12,11,2927,826,870,-1,"a.sham","press",1,"GAL","Go",1,173,"3",5,"lose","Avoid","lose"
"494","EEMR0429",12,10,9,12,11,1706,745,0,1,"a.sham","no_press",0,"NGW","noGo",1,174,"3",3,"win","Win","win"
"495","EEMR0429",10,10,9,12,11,2222,881,0,0,"a.sham","no_press",0,"GW","Go",0,175,"3",4,"neutral","Win",NA
"496","EEMR0429",12,10,9,12,11,1988,595,0,0,"a.sham","no_press",0,"NGW","noGo",1,176,"3",4,"neutral","Win",NA
"497","EEMR0429",11,10,9,12,11,1759,594,0,0,"a.sham","no_press",0,"NGL","noGo",1,177,"3",4,"neutral","Avoid",NA
"498","EEMR0429",11,10,9,12,11,1819,515,0,0,"a.sham","no_press",0,"NGL","noGo",1,178,"3",5,"neutral","Avoid",NA
"499","EEMR0429",11,10,9,12,11,1813,672,0,0,"a.sham","no_press",0,"NGL","noGo",1,179,"3",6,"neutral","Avoid",NA
"500","EEMR0429",12,10,9,12,11,2289,746,0,1,"a.sham","no_press",0,"NGW","noGo",1,180,"3",5,"win","Win","win"
"501","EEMR0429",9,10,9,12,11,2818,910,572,-1,"a.sham","press",1,"GAL","Go",1,181,"3",6,"lose","Avoid","lose"
"502","EEMR0429",9,10,9,12,11,1880,634,347,0,"a.sham","press",1,"GAL","Go",1,182,"3",7,"neutral","Avoid",NA
"503","EEMR0429",10,10,9,12,11,1788,689,0,0,"a.sham","no_press",0,"GW","Go",0,183,"3",5,"neutral","Win",NA
"504","EEMR0429",11,10,9,12,11,1512,749,0,0,"a.sham","no_press",0,"NGL","noGo",1,184,"3",7,"neutral","Avoid",NA
"505","EEMR0429",9,10,9,12,11,1794,676,494,0,"a.sham","press",1,"GAL","Go",1,185,"3",8,"neutral","Avoid",NA
"506","EEMR0429",9,10,9,12,11,2958,807,492,0,"a.sham","press",1,"GAL","Go",1,186,"3",9,"neutral","Avoid",NA
"507","EEMR0429",11,10,9,12,11,1300,877,0,-1,"a.sham","no_press",0,"NGL","noGo",1,187,"3",8,"lose","Avoid","lose"
"508","EEMR0429",12,10,9,12,11,1576,854,0,1,"a.sham","no_press",0,"NGW","noGo",1,188,"3",6,"win","Win","win"
"509","EEMR0429",12,10,9,12,11,2076,718,0,1,"a.sham","no_press",0,"NGW","noGo",1,189,"3",7,"win","Win","win"
"510","EEMR0429",12,10,9,12,11,1595,784,0,1,"a.sham","no_press",0,"NGW","noGo",1,190,"3",8,"win","Win","win"
"511","EEMR0429",9,10,9,12,11,2058,522,485,0,"a.sham","press",1,"GAL","Go",1,191,"3",10,"neutral","Avoid",NA
"512","EEMR0429",9,10,9,12,11,1631,972,527,0,"a.sham","press",1,"GAL","Go",1,192,"3",11,"neutral","Avoid",NA
"513","EEMR0429",10,10,9,12,11,2203,807,0,0,"a.sham","no_press",0,"GW","Go",0,193,"3",6,"neutral","Win",NA
"514","EEMR0429",9,10,9,12,11,1504,740,519,0,"a.sham","press",1,"GAL","Go",1,194,"3",12,"neutral","Avoid",NA
"515","EEMR0429",11,10,9,12,11,3057,878,0,-1,"a.sham","no_press",0,"NGL","noGo",1,195,"3",9,"lose","Avoid","lose"
"516","EEMR0429",9,10,9,12,11,2934,958,643,0,"a.sham","press",1,"GAL","Go",1,196,"3",13,"neutral","Avoid",NA
"517","EEMR0429",10,10,9,12,11,2763,876,0,1,"a.sham","no_press",0,"GW","Go",0,197,"3",7,"win","Win","win"
"518","EEMR0429",10,10,9,12,11,2253,588,0,0,"a.sham","no_press",0,"GW","Go",0,198,"3",8,"neutral","Win",NA
"519","EEMR0429",12,10,9,12,11,2273,943,0,1,"a.sham","no_press",0,"NGW","noGo",1,199,"3",9,"win","Win","win"
"520","EEMR0429",12,10,9,12,11,1832,905,0,0,"a.sham","no_press",0,"NGW","noGo",1,200,"3",10,"neutral","Win",NA
"521","EEMR0429",12,10,9,12,11,1720,893,0,1,"a.sham","no_press",0,"NGW","noGo",1,201,"3",11,"win","Win","win"
"522","EEMR0429",12,10,9,12,11,1841,723,0,0,"a.sham","no_press",0,"NGW","noGo",1,202,"3",12,"neutral","Win",NA
"523","EEMR0429",10,10,9,12,11,3243,828,0,0,"a.sham","no_press",0,"GW","Go",0,203,"3",9,"neutral","Win",NA
"524","EEMR0429",12,10,9,12,11,2080,606,0,1,"a.sham","no_press",0,"NGW","noGo",1,204,"3",13,"win","Win","win"
"525","EEMR0429",9,10,9,12,11,1832,827,713,0,"a.sham","press",1,"GAL","Go",1,205,"3",14,"neutral","Avoid",NA
"526","EEMR0429",12,10,9,12,11,1000,824,0,1,"a.sham","no_press",0,"NGW","noGo",1,206,"3",14,"win","Win","win"
"527","EEMR0429",10,10,9,12,11,1953,586,0,0,"a.sham","no_press",0,"GW","Go",0,207,"3",10,"neutral","Win",NA
"528","EEMR0429",9,10,9,12,11,2194,666,485,0,"a.sham","press",1,"GAL","Go",1,208,"3",15,"neutral","Avoid",NA
"529","EEMR0429",12,10,9,12,11,1775,827,0,1,"a.sham","no_press",0,"NGW","noGo",1,209,"3",15,"win","Win","win"
"530","EEMR0429",9,10,9,12,11,3235,839,518,0,"a.sham","press",1,"GAL","Go",1,210,"3",16,"neutral","Avoid",NA
"531","EEMR0429",10,10,9,12,11,2078,561,0,0,"a.sham","no_press",0,"GW","Go",0,211,"3",11,"neutral","Win",NA
"532","EEMR0429",11,10,9,12,11,2266,906,0,0,"a.sham","no_press",0,"NGL","noGo",1,212,"3",10,"neutral","Avoid",NA
"533","EEMR0429",11,10,9,12,11,1623,517,0,0,"a.sham","no_press",0,"NGL","noGo",1,213,"3",11,"neutral","Avoid",NA
"534","EEMR0429",10,10,9,12,11,2709,954,0,1,"a.sham","no_press",0,"GW","Go",0,214,"3",12,"win","Win","win"
"535","EEMR0429",10,10,9,12,11,2374,761,0,0,"a.sham","no_press",0,"GW","Go",0,215,"3",13,"neutral","Win",NA
"536","EEMR0429",10,10,9,12,11,2276,851,0,0,"a.sham","no_press",0,"GW","Go",0,216,"3",14,"neutral","Win",NA
"537","EEMR0429",10,10,9,12,11,2102,591,0,1,"a.sham","no_press",0,"GW","Go",0,217,"3",15,"win","Win","win"
"538","EEMR0429",11,10,9,12,11,2086,585,0,0,"a.sham","no_press",0,"NGL","noGo",1,218,"3",12,"neutral","Avoid",NA
"539","EEMR0429",11,10,9,12,11,1582,692,0,-1,"a.sham","no_press",0,"NGL","noGo",1,219,"3",13,"lose","Avoid","lose"
"540","EEMR0429",10,10,9,12,11,2306,897,0,0,"a.sham","no_press",0,"GW","Go",0,220,"3",16,"neutral","Win",NA
"541","EEMR0429",11,10,9,12,11,1000,661,0,-1,"a.sham","no_press",0,"NGL","noGo",1,221,"3",14,"lose","Avoid","lose"
"542","EEMR0429",10,10,9,12,11,2048,597,0,0,"a.sham","no_press",0,"GW","Go",0,222,"3",17,"neutral","Win",NA
"543","EEMR0429",9,10,9,12,11,2925,878,492,0,"a.sham","press",1,"GAL","Go",1,223,"3",17,"neutral","Avoid",NA
"544","EEMR0429",12,10,9,12,11,1655,806,0,1,"a.sham","no_press",0,"NGW","noGo",1,224,"3",16,"win","Win","win"
"545","EEMR0429",12,10,9,12,11,2231,972,0,1,"a.sham","no_press",0,"NGW","noGo",1,225,"3",17,"win","Win","win"
"546","EEMR0429",10,10,9,12,11,3179,643,0,0,"a.sham","no_press",0,"GW","Go",0,226,"3",18,"neutral","Win",NA
"547","EEMR0429",12,10,9,12,11,2275,541,0,0,"a.sham","no_press",0,"NGW","noGo",1,227,"3",18,"neutral","Win",NA
"548","EEMR0429",12,10,9,12,11,1834,916,0,1,"a.sham","no_press",0,"NGW","noGo",1,228,"3",19,"win","Win","win"
"549","EEMR0429",11,10,9,12,11,2289,731,0,0,"a.sham","no_press",0,"NGL","noGo",1,229,"3",15,"neutral","Avoid",NA
"550","EEMR0429",10,10,9,12,11,2829,628,0,0,"a.sham","no_press",0,"GW","Go",0,230,"3",19,"neutral","Win",NA
"551","EEMR0429",9,10,9,12,11,2244,593,619,0,"a.sham","press",1,"GAL","Go",1,231,"3",18,"neutral","Avoid",NA
"552","EEMR0429",11,10,9,12,11,1528,866,0,0,"a.sham","no_press",0,"NGL","noGo",1,232,"3",16,"neutral","Avoid",NA
"553","EEMR0429",11,10,9,12,11,2520,984,0,0,"a.sham","no_press",0,"NGL","noGo",1,233,"3",17,"neutral","Avoid",NA
"554","EEMR0429",12,10,9,12,11,2668,966,0,1,"a.sham","no_press",0,"NGW","noGo",1,234,"3",20,"win","Win","win"
"555","EEMR0429",11,10,9,12,11,1592,696,0,0,"a.sham","no_press",0,"NGL","noGo",1,235,"3",18,"neutral","Avoid",NA
"556","EEMR0429",10,10,9,12,11,2485,548,0,0,"a.sham","no_press",0,"GW","Go",0,236,"3",20,"neutral","Win",NA
"557","EEMR0429",9,10,9,12,11,3075,903,500,0,"a.sham","press",1,"GAL","Go",1,237,"3",19,"neutral","Avoid",NA
"558","EEMR0429",11,10,9,12,11,1856,941,0,0,"a.sham","no_press",0,"NGL","noGo",1,238,"3",19,"neutral","Avoid",NA
"559","EEMR0429",9,10,9,12,11,1513,971,569,-1,"a.sham","press",1,"GAL","Go",1,239,"3",20,"lose","Avoid","lose"
"560","EEMR0429",11,10,9,12,11,1871,572,0,0,"a.sham","no_press",0,"NGL","noGo",1,240,"3",20,"neutral","Avoid",NA
"561","EEMR0429",15,14,13,16,15,2353,625,0,0,"a.sham","no_press",0,"NGL","noGo",1,241,"4",1,"neutral","Avoid",NA
"562","EEMR0429",16,14,13,16,15,2689,515,0,1,"a.sham","no_press",0,"NGW","noGo",1,242,"4",1,"win","Win","win"
"563","EEMR0429",16,14,13,16,15,1857,933,0,0,"a.sham","no_press",0,"NGW","noGo",1,243,"4",2,"neutral","Win",NA
"564","EEMR0429",16,14,13,16,15,1497,914,0,1,"a.sham","no_press",0,"NGW","noGo",1,244,"4",3,"win","Win","win"
"565","EEMR0429",15,14,13,16,15,1343,793,0,0,"a.sham","no_press",0,"NGL","noGo",1,245,"4",2,"neutral","Avoid",NA
"566","EEMR0429",16,14,13,16,15,1851,768,0,1,"a.sham","no_press",0,"NGW","noGo",1,246,"4",4,"win","Win","win"
"567","EEMR0429",14,14,13,16,15,1247,597,0,0,"a.sham","no_press",0,"GW","Go",0,247,"4",1,"neutral","Win",NA
"568","EEMR0429",13,14,13,16,15,2114,895,0,-1,"a.sham","no_press",0,"GAL","Go",0,248,"4",1,"lose","Avoid","lose"
"569","EEMR0429",16,14,13,16,15,2547,924,0,1,"a.sham","no_press",0,"NGW","noGo",1,249,"4",5,"win","Win","win"
"570","EEMR0429",13,14,13,16,15,2100,772,654,0,"a.sham","press",1,"GAL","Go",1,250,"4",2,"neutral","Avoid",NA
"571","EEMR0429",14,14,13,16,15,1659,982,0,0,"a.sham","no_press",0,"GW","Go",0,251,"4",2,"neutral","Win",NA
"572","EEMR0429",15,14,13,16,15,1898,852,0,0,"a.sham","no_press",0,"NGL","noGo",1,252,"4",3,"neutral","Avoid",NA
"573","EEMR0429",13,14,13,16,15,1584,619,609,0,"a.sham","press",1,"GAL","Go",1,253,"4",3,"neutral","Avoid",NA
"574","EEMR0429",15,14,13,16,15,2907,770,0,-1,"a.sham","no_press",0,"NGL","noGo",1,254,"4",4,"lose","Avoid","lose"
"575","EEMR0429",14,14,13,16,15,1470,760,0,0,"a.sham","no_press",0,"GW","Go",0,255,"4",3,"neutral","Win",NA
"576","EEMR0429",13,14,13,16,15,1238,812,354,-1,"a.sham","press",1,"GAL","Go",1,256,"4",4,"lose","Avoid","lose"
"577","EEMR0429",13,14,13,16,15,2334,823,540,0,"a.sham","press",1,"GAL","Go",1,257,"4",5,"neutral","Avoid",NA
"578","EEMR0429",15,14,13,16,15,2525,983,0,-1,"a.sham","no_press",0,"NGL","noGo",1,258,"4",5,"lose","Avoid","lose"
"579","EEMR0429",15,14,13,16,15,1550,831,0,0,"a.sham","no_press",0,"NGL","noGo",1,259,"4",6,"neutral","Avoid",NA
"580","EEMR0429",14,14,13,16,15,2398,669,0,1,"a.sham","no_press",0,"GW","Go",0,260,"4",4,"win","Win","win"
"581","EEMR0429",15,14,13,16,15,2335,974,0,0,"a.sham","no_press",0,"NGL","noGo",1,261,"4",7,"neutral","Avoid",NA
"582","EEMR0429",15,14,13,16,15,1254,967,0,0,"a.sham","no_press",0,"NGL","noGo",1,262,"4",8,"neutral","Avoid",NA
"583","EEMR0429",14,14,13,16,15,2128,505,0,0,"a.sham","no_press",0,"GW","Go",0,263,"4",5,"neutral","Win",NA
"584","EEMR0429",13,14,13,16,15,1723,972,486,0,"a.sham","press",1,"GAL","Go",1,264,"4",6,"neutral","Avoid",NA
"585","EEMR0429",16,14,13,16,15,1757,647,0,1,"a.sham","no_press",0,"NGW","noGo",1,265,"4",6,"win","Win","win"
"586","EEMR0429",15,14,13,16,15,1207,712,0,0,"a.sham","no_press",0,"NGL","noGo",1,266,"4",9,"neutral","Avoid",NA
"587","EEMR0429",15,14,13,16,15,1469,716,0,0,"a.sham","no_press",0,"NGL","noGo",1,267,"4",10,"neutral","Avoid",NA
"588","EEMR0429",14,14,13,16,15,2014,520,0,0,"a.sham","no_press",0,"GW","Go",0,268,"4",6,"neutral","Win",NA
"589","EEMR0429",14,14,13,16,15,1671,553,0,1,"a.sham","no_press",0,"GW","Go",0,269,"4",7,"win","Win","win"
"590","EEMR0429",13,14,13,16,15,1567,830,570,0,"a.sham","press",1,"GAL","Go",1,270,"4",7,"neutral","Avoid",NA
"591","EEMR0429",13,14,13,16,15,2229,992,439,0,"a.sham","press",1,"GAL","Go",1,271,"4",8,"neutral","Avoid",NA
"592","EEMR0429",13,14,13,16,15,1646,801,510,0,"a.sham","press",1,"GAL","Go",1,272,"4",9,"neutral","Avoid",NA
"593","EEMR0429",15,14,13,16,15,1759,682,0,0,"a.sham","no_press",0,"NGL","noGo",1,273,"4",11,"neutral","Avoid",NA
"594","EEMR0429",13,14,13,16,15,2800,925,652,0,"a.sham","press",1,"GAL","Go",1,274,"4",10,"neutral","Avoid",NA
"595","EEMR0429",13,14,13,16,15,1447,871,584,0,"a.sham","press",1,"GAL","Go",1,275,"4",11,"neutral","Avoid",NA
"596","EEMR0429",15,14,13,16,15,1737,947,0,0,"a.sham","no_press",0,"NGL","noGo",1,276,"4",12,"neutral","Avoid",NA
"597","EEMR0429",16,14,13,16,15,1984,936,0,1,"a.sham","no_press",0,"NGW","noGo",1,277,"4",7,"win","Win","win"
"598","EEMR0429",15,14,13,16,15,1181,986,0,-1,"a.sham","no_press",0,"NGL","noGo",1,278,"4",13,"lose","Avoid","lose"
"599","EEMR0429",13,14,13,16,15,2086,672,471,0,"a.sham","press",1,"GAL","Go",1,279,"4",12,"neutral","Avoid",NA
"600","EEMR0429",16,14,13,16,15,2246,786,0,1,"a.sham","no_press",0,"NGW","noGo",1,280,"4",8,"win","Win","win"
"601","EEMR0429",13,14,13,16,15,1301,852,460,0,"a.sham","press",1,"GAL","Go",1,281,"4",13,"neutral","Avoid",NA
"602","EEMR0429",14,14,13,16,15,2053,684,0,0,"a.sham","no_press",0,"GW","Go",0,282,"4",8,"neutral","Win",NA
"603","EEMR0429",15,14,13,16,15,2642,688,0,0,"a.sham","no_press",0,"NGL","noGo",1,283,"4",14,"neutral","Avoid",NA
"604","EEMR0429",14,14,13,16,15,1749,548,0,0,"a.sham","no_press",0,"GW","Go",0,284,"4",9,"neutral","Win",NA
"605","EEMR0429",14,14,13,16,15,2511,586,0,0,"a.sham","no_press",0,"GW","Go",0,285,"4",10,"neutral","Win",NA
"606","EEMR0429",14,14,13,16,15,1565,570,0,1,"a.sham","no_press",0,"GW","Go",0,286,"4",11,"win","Win","win"
"607","EEMR0429",13,14,13,16,15,1637,754,469,0,"a.sham","press",1,"GAL","Go",1,287,"4",14,"neutral","Avoid",NA
"608","EEMR0429",16,14,13,16,15,1668,771,0,1,"a.sham","no_press",0,"NGW","noGo",1,288,"4",9,"win","Win","win"
"609","EEMR0429",15,14,13,16,15,2936,561,0,-1,"a.sham","no_press",0,"NGL","noGo",1,289,"4",15,"lose","Avoid","lose"
"610","EEMR0429",15,14,13,16,15,1418,613,0,0,"a.sham","no_press",0,"NGL","noGo",1,290,"4",16,"neutral","Avoid",NA
"611","EEMR0429",15,14,13,16,15,2420,954,0,0,"a.sham","no_press",0,"NGL","noGo",1,291,"4",17,"neutral","Avoid",NA
"612","EEMR0429",15,14,13,16,15,2331,996,0,0,"a.sham","no_press",0,"NGL","noGo",1,292,"4",18,"neutral","Avoid",NA
"613","EEMR0429",15,14,13,16,15,2059,982,0,0,"a.sham","no_press",0,"NGL","noGo",1,293,"4",19,"neutral","Avoid",NA
"614","EEMR0429",15,14,13,16,15,3659,891,0,0,"a.sham","no_press",0,"NGL","noGo",1,294,"4",20,"neutral","Avoid",NA
"615","EEMR0429",14,14,13,16,15,2503,576,0,0,"a.sham","no_press",0,"GW","Go",0,295,"4",12,"neutral","Win",NA
"616","EEMR0429",16,14,13,16,15,2086,604,0,1,"a.sham","no_press",0,"NGW","noGo",1,296,"4",10,"win","Win","win"
"617","EEMR0429",14,14,13,16,15,1531,739,0,0,"a.sham","no_press",0,"GW","Go",0,297,"4",13,"neutral","Win",NA
"618","EEMR0429",13,14,13,16,15,2184,915,520,0,"a.sham","press",1,"GAL","Go",1,298,"4",15,"neutral","Avoid",NA
"619","EEMR0429",14,14,13,16,15,1547,530,0,0,"a.sham","no_press",0,"GW","Go",0,299,"4",14,"neutral","Win",NA
"620","EEMR0429",14,14,13,16,15,2071,516,0,0,"a.sham","no_press",0,"GW","Go",0,300,"4",15,"neutral","Win",NA
"621","EEMR0429",16,14,13,16,15,1975,863,0,1,"a.sham","no_press",0,"NGW","noGo",1,301,"4",11,"win","Win","win"
"622","EEMR0429",16,14,13,16,15,1318,528,0,1,"a.sham","no_press",0,"NGW","noGo",1,302,"4",12,"win","Win","win"
"623","EEMR0429",16,14,13,16,15,1880,667,0,1,"a.sham","no_press",0,"NGW","noGo",1,303,"4",13,"win","Win","win"
"624","EEMR0429",13,14,13,16,15,2332,677,466,0,"a.sham","press",1,"GAL","Go",1,304,"4",16,"neutral","Avoid",NA
"625","EEMR0429",16,14,13,16,15,2256,526,0,0,"a.sham","no_press",0,"NGW","noGo",1,305,"4",14,"neutral","Win",NA
"626","EEMR0429",16,14,13,16,15,2550,726,0,1,"a.sham","no_press",0,"NGW","noGo",1,306,"4",15,"win","Win","win"
"627","EEMR0429",16,14,13,16,15,2087,815,0,0,"a.sham","no_press",0,"NGW","noGo",1,307,"4",16,"neutral","Win",NA
"628","EEMR0429",14,14,13,16,15,2507,754,0,0,"a.sham","no_press",0,"GW","Go",0,308,"4",16,"neutral","Win",NA
"629","EEMR0429",16,14,13,16,15,1803,914,0,1,"a.sham","no_press",0,"NGW","noGo",1,309,"4",17,"win","Win","win"
"630","EEMR0429",16,14,13,16,15,1000,535,0,0,"a.sham","no_press",0,"NGW","noGo",1,310,"4",18,"neutral","Win",NA
"631","EEMR0429",13,14,13,16,15,2095,955,551,0,"a.sham","press",1,"GAL","Go",1,311,"4",17,"neutral","Avoid",NA
"632","EEMR0429",14,14,13,16,15,1277,874,0,0,"a.sham","no_press",0,"GW","Go",0,312,"4",17,"neutral","Win",NA
"633","EEMR0429",13,14,13,16,15,1422,873,521,0,"a.sham","press",1,"GAL","Go",1,313,"4",18,"neutral","Avoid",NA
"634","EEMR0429",14,14,13,16,15,2371,602,0,0,"a.sham","no_press",0,"GW","Go",0,314,"4",18,"neutral","Win",NA
"635","EEMR0429",13,14,13,16,15,2168,872,622,-1,"a.sham","press",1,"GAL","Go",1,315,"4",19,"lose","Avoid","lose"
"636","EEMR0429",16,14,13,16,15,2127,623,0,1,"a.sham","no_press",0,"NGW","noGo",1,316,"4",19,"win","Win","win"
"637","EEMR0429",16,14,13,16,15,1978,524,0,1,"a.sham","no_press",0,"NGW","noGo",1,317,"4",20,"win","Win","win"
"638","EEMR0429",14,14,13,16,15,1279,825,0,1,"a.sham","no_press",0,"GW","Go",0,318,"4",19,"win","Win","win"
"639","EEMR0429",14,14,13,16,15,1844,683,0,0,"a.sham","no_press",0,"GW","Go",0,319,"4",20,"neutral","Win",NA
"640","EEMR0429",13,14,13,16,15,2190,686,512,-1,"a.sham","press",1,"GAL","Go",1,320,"4",20,"lose","Avoid","lose"
"641","FNMA0105",4,4,3,2,1,1462,859,869,1,"a.sham","press",1,"GW","Go",1,1,"1",1,"win","Win","win"
"642","FNMA0105",1,4,3,2,1,1250,840,707,-1,"a.sham","press",1,"NGL","noGo",0,2,"1",1,"lose","Avoid","lose"
"643","FNMA0105",3,4,3,2,1,1964,604,946,0,"a.sham","press",1,"GAL","Go",1,3,"1",1,"neutral","Avoid",NA
"644","FNMA0105",1,4,3,2,1,1597,575,814,-1,"a.sham","press",1,"NGL","noGo",0,4,"1",2,"lose","Avoid","lose"
"645","FNMA0105",1,4,3,2,1,1780,896,0,0,"a.sham","no_press",0,"NGL","noGo",1,5,"1",3,"neutral","Avoid",NA
"646","FNMA0105",4,4,3,2,1,1666,759,773,1,"a.sham","press",1,"GW","Go",1,6,"1",2,"win","Win","win"
"647","FNMA0105",4,4,3,2,1,1779,909,629,0,"a.sham","press",1,"GW","Go",1,7,"1",3,"neutral","Win",NA
"648","FNMA0105",4,4,3,2,1,1635,709,610,1,"a.sham","press",1,"GW","Go",1,8,"1",4,"win","Win","win"
"649","FNMA0105",1,4,3,2,1,1575,872,0,0,"a.sham","no_press",0,"NGL","noGo",1,9,"1",4,"neutral","Avoid",NA
"650","FNMA0105",3,4,3,2,1,1953,577,602,0,"a.sham","press",1,"GAL","Go",1,10,"1",2,"neutral","Avoid",NA
"651","FNMA0105",2,4,3,2,1,2336,813,927,0,"a.sham","press",1,"NGW","noGo",0,11,"1",1,"neutral","Win",NA
"652","FNMA0105",2,4,3,2,1,2004,604,0,1,"a.sham","no_press",0,"NGW","noGo",1,12,"1",2,"win","Win","win"
"653","FNMA0105",1,4,3,2,1,1787,972,751,-1,"a.sham","press",1,"NGL","noGo",0,13,"1",5,"lose","Avoid","lose"
"654","FNMA0105",1,4,3,2,1,1000,709,0,-1,"a.sham","no_press",0,"NGL","noGo",1,14,"1",6,"lose","Avoid","lose"
"655","FNMA0105",2,4,3,2,1,1932,608,835,0,"a.sham","press",1,"NGW","noGo",0,15,"1",3,"neutral","Win",NA
"656","FNMA0105",3,4,3,2,1,1761,683,0,-1,"a.sham","no_press",0,"GAL","Go",0,16,"1",3,"lose","Avoid","lose"
"657","FNMA0105",1,4,3,2,1,1932,600,0,-1,"a.sham","no_press",0,"NGL","noGo",1,17,"1",7,"lose","Avoid","lose"
"658","FNMA0105",2,4,3,2,1,1795,712,776,0,"a.sham","press",1,"NGW","noGo",0,18,"1",4,"neutral","Win",NA
"659","FNMA0105",4,4,3,2,1,1622,937,619,1,"a.sham","press",1,"GW","Go",1,19,"1",5,"win","Win","win"
"660","FNMA0105",4,4,3,2,1,1433,875,618,0,"a.sham","press",1,"GW","Go",1,20,"1",6,"neutral","Win",NA
"661","FNMA0105",4,4,3,2,1,2251,991,420,1,"a.sham","press",1,"GW","Go",1,21,"1",7,"win","Win","win"
"662","FNMA0105",3,4,3,2,1,2299,911,0,-1,"a.sham","no_press",0,"GAL","Go",0,22,"1",4,"lose","Avoid","lose"
"663","FNMA0105",3,4,3,2,1,2228,694,558,0,"a.sham","press",1,"GAL","Go",1,23,"1",5,"neutral","Avoid",NA
"664","FNMA0105",4,4,3,2,1,2164,558,668,0,"a.sham","press",1,"GW","Go",1,24,"1",8,"neutral","Win",NA
"665","FNMA0105",1,4,3,2,1,1187,748,0,0,"a.sham","no_press",0,"NGL","noGo",1,25,"1",8,"neutral","Avoid",NA
"666","FNMA0105",1,4,3,2,1,2663,647,0,0,"a.sham","no_press",0,"NGL","noGo",1,26,"1",9,"neutral","Avoid",NA
"667","FNMA0105",3,4,3,2,1,2149,823,629,0,"a.sham","press",1,"GAL","Go",1,27,"1",6,"neutral","Avoid",NA
"668","FNMA0105",4,4,3,2,1,2344,583,483,1,"a.sham","press",1,"GW","Go",1,28,"1",9,"win","Win","win"
"669","FNMA0105",2,4,3,2,1,2116,561,520,0,"a.sham","press",1,"NGW","noGo",0,29,"1",5,"neutral","Win",NA
"670","FNMA0105",2,4,3,2,1,2045,512,465,1,"a.sham","press",1,"NGW","noGo",0,30,"1",6,"win","Win","win"
"671","FNMA0105",3,4,3,2,1,2380,604,594,0,"a.sham","press",1,"GAL","Go",1,31,"1",7,"neutral","Avoid",NA
"672","FNMA0105",2,4,3,2,1,2274,627,638,0,"a.sham","press",1,"NGW","noGo",0,32,"1",7,"neutral","Win",NA
"673","FNMA0105",2,4,3,2,1,2088,917,493,1,"a.sham","press",1,"NGW","noGo",0,33,"1",8,"win","Win","win"
"674","FNMA0105",1,4,3,2,1,1965,558,0,0,"a.sham","no_press",0,"NGL","noGo",1,34,"1",10,"neutral","Avoid",NA
"675","FNMA0105",2,4,3,2,1,1608,524,673,1,"a.sham","press",1,"NGW","noGo",0,35,"1",9,"win","Win","win"
"676","FNMA0105",4,4,3,2,1,1938,529,759,1,"a.sham","press",1,"GW","Go",1,36,"1",10,"win","Win","win"
"677","FNMA0105",3,4,3,2,1,2184,649,802,-1,"a.sham","press",1,"GAL","Go",1,37,"1",8,"lose","Avoid","lose"
"678","FNMA0105",4,4,3,2,1,2402,938,439,1,"a.sham","press",1,"GW","Go",1,38,"1",11,"win","Win","win"
"679","FNMA0105",1,4,3,2,1,2528,583,0,0,"a.sham","no_press",0,"NGL","noGo",1,39,"1",11,"neutral","Avoid",NA
"680","FNMA0105",2,4,3,2,1,1703,536,676,0,"a.sham","press",1,"NGW","noGo",0,40,"1",10,"neutral","Win",NA
"681","FNMA0105",3,4,3,2,1,2695,914,569,0,"a.sham","press",1,"GAL","Go",1,41,"1",9,"neutral","Avoid",NA
"682","FNMA0105",1,4,3,2,1,1598,638,0,-1,"a.sham","no_press",0,"NGL","noGo",1,42,"1",12,"lose","Avoid","lose"
"683","FNMA0105",2,4,3,2,1,2107,546,506,0,"a.sham","press",1,"NGW","noGo",0,43,"1",11,"neutral","Win",NA
"684","FNMA0105",2,4,3,2,1,2794,844,894,0,"a.sham","press",1,"NGW","noGo",0,44,"1",12,"neutral","Win",NA
"685","FNMA0105",3,4,3,2,1,2381,652,439,-1,"a.sham","press",1,"GAL","Go",1,45,"1",10,"lose","Avoid","lose"
"686","FNMA0105",4,4,3,2,1,2044,630,478,1,"a.sham","press",1,"GW","Go",1,46,"1",12,"win","Win","win"
"687","FNMA0105",2,4,3,2,1,1000,769,837,0,"a.sham","press",1,"NGW","noGo",0,47,"1",13,"neutral","Win",NA
"688","FNMA0105",4,4,3,2,1,1543,565,567,1,"a.sham","press",1,"GW","Go",1,48,"1",13,"win","Win","win"
"689","FNMA0105",3,4,3,2,1,2041,975,0,-1,"a.sham","no_press",0,"GAL","Go",0,49,"1",11,"lose","Avoid","lose"
"690","FNMA0105",1,4,3,2,1,1479,693,0,0,"a.sham","no_press",0,"NGL","noGo",1,50,"1",13,"neutral","Avoid",NA
"691","FNMA0105",1,4,3,2,1,1547,852,0,0,"a.sham","no_press",0,"NGL","noGo",1,51,"1",14,"neutral","Avoid",NA
"692","FNMA0105",4,4,3,2,1,1463,821,491,1,"a.sham","press",1,"GW","Go",1,52,"1",14,"win","Win","win"
"693","FNMA0105",3,4,3,2,1,1822,978,758,0,"a.sham","press",1,"GAL","Go",1,53,"1",12,"neutral","Avoid",NA
"694","FNMA0105",3,4,3,2,1,1987,801,677,0,"a.sham","press",1,"GAL","Go",1,54,"1",13,"neutral","Avoid",NA
"695","FNMA0105",3,4,3,2,1,2239,644,367,0,"a.sham","press",1,"GAL","Go",1,55,"1",14,"neutral","Avoid",NA
"696","FNMA0105",4,4,3,2,1,2143,819,543,1,"a.sham","press",1,"GW","Go",1,56,"1",15,"win","Win","win"
"697","FNMA0105",1,4,3,2,1,1495,622,0,0,"a.sham","no_press",0,"NGL","noGo",1,57,"1",15,"neutral","Avoid",NA
"698","FNMA0105",2,4,3,2,1,2348,729,623,0,"a.sham","press",1,"NGW","noGo",0,58,"1",14,"neutral","Win",NA
"699","FNMA0105",3,4,3,2,1,1820,850,636,0,"a.sham","press",1,"GAL","Go",1,59,"1",15,"neutral","Avoid",NA
"700","FNMA0105",2,4,3,2,1,2234,757,563,0,"a.sham","press",1,"NGW","noGo",0,60,"1",15,"neutral","Win",NA
"701","FNMA0105",3,4,3,2,1,1709,581,556,0,"a.sham","press",1,"GAL","Go",1,61,"1",16,"neutral","Avoid",NA
"702","FNMA0105",1,4,3,2,1,1690,725,0,0,"a.sham","no_press",0,"NGL","noGo",1,62,"1",16,"neutral","Avoid",NA
"703","FNMA0105",3,4,3,2,1,1702,887,566,-1,"a.sham","press",1,"GAL","Go",1,63,"1",17,"lose","Avoid","lose"
"704","FNMA0105",1,4,3,2,1,2237,890,0,0,"a.sham","no_press",0,"NGL","noGo",1,64,"1",17,"neutral","Avoid",NA
"705","FNMA0105",3,4,3,2,1,2212,544,579,-1,"a.sham","press",1,"GAL","Go",1,65,"1",18,"lose","Avoid","lose"
"706","FNMA0105",4,4,3,2,1,2481,994,538,1,"a.sham","press",1,"GW","Go",1,66,"1",16,"win","Win","win"
"707","FNMA0105",4,4,3,2,1,1240,899,987,0,"a.sham","press",1,"GW","Go",1,67,"1",17,"neutral","Win",NA
"708","FNMA0105",2,4,3,2,1,1509,825,659,0,"a.sham","press",1,"NGW","noGo",0,68,"1",16,"neutral","Win",NA
"709","FNMA0105",2,4,3,2,1,1772,948,0,0,"a.sham","no_press",0,"NGW","noGo",1,69,"1",17,"neutral","Win",NA
"710","FNMA0105",2,4,3,2,1,1890,623,0,1,"a.sham","no_press",0,"NGW","noGo",1,70,"1",18,"win","Win","win"
"711","FNMA0105",2,4,3,2,1,2664,778,0,1,"a.sham","no_press",0,"NGW","noGo",1,71,"1",19,"win","Win","win"
"712","FNMA0105",1,4,3,2,1,2745,790,0,0,"a.sham","no_press",0,"NGL","noGo",1,72,"1",18,"neutral","Avoid",NA
"713","FNMA0105",1,4,3,2,1,1596,615,0,0,"a.sham","no_press",0,"NGL","noGo",1,73,"1",19,"neutral","Avoid",NA
"714","FNMA0105",4,4,3,2,1,1715,839,542,1,"a.sham","press",1,"GW","Go",1,74,"1",18,"win","Win","win"
"715","FNMA0105",4,4,3,2,1,1937,851,573,1,"a.sham","press",1,"GW","Go",1,75,"1",19,"win","Win","win"
"716","FNMA0105",3,4,3,2,1,2701,903,1124,0,"a.sham","press",1,"GAL","Go",1,76,"1",19,"neutral","Avoid",NA
"717","FNMA0105",4,4,3,2,1,1468,887,617,1,"a.sham","press",1,"GW","Go",1,77,"1",20,"win","Win","win"
"718","FNMA0105",1,4,3,2,1,2087,575,0,0,"a.sham","no_press",0,"NGL","noGo",1,78,"1",20,"neutral","Avoid",NA
"719","FNMA0105",3,4,3,2,1,2084,799,829,0,"a.sham","press",1,"GAL","Go",1,79,"1",20,"neutral","Avoid",NA
"720","FNMA0105",2,4,3,2,1,2224,804,823,0,"a.sham","press",1,"NGW","noGo",0,80,"1",20,"neutral","Win",NA
"721","FNMA0105",8,6,7,8,5,1798,933,981,0,"a.sham","press",1,"NGW","noGo",0,81,"2",1,"neutral","Win",NA
"722","FNMA0105",8,6,7,8,5,3276,925,0,1,"a.sham","no_press",0,"NGW","noGo",1,82,"2",2,"win","Win","win"
"723","FNMA0105",7,6,7,8,5,1504,863,0,-1,"a.sham","no_press",0,"GAL","Go",0,83,"2",1,"lose","Avoid","lose"
"724","FNMA0105",7,6,7,8,5,2010,580,0,-1,"a.sham","no_press",0,"GAL","Go",0,84,"2",2,"lose","Avoid","lose"
"725","FNMA0105",5,6,7,8,5,2745,814,790,-1,"a.sham","press",1,"NGL","noGo",0,85,"2",1,"lose","Avoid","lose"
"726","FNMA0105",7,6,7,8,5,1992,656,0,-1,"a.sham","no_press",0,"GAL","Go",0,86,"2",3,"lose","Avoid","lose"
"727","FNMA0105",5,6,7,8,5,1795,661,618,0,"a.sham","press",1,"NGL","noGo",0,87,"2",2,"neutral","Avoid",NA
"728","FNMA0105",6,6,7,8,5,1678,608,557,1,"a.sham","press",1,"GW","Go",1,88,"2",1,"win","Win","win"
"729","FNMA0105",6,6,7,8,5,1246,923,485,0,"a.sham","press",1,"GW","Go",1,89,"2",2,"neutral","Win",NA
"730","FNMA0105",5,6,7,8,5,2032,753,769,-1,"a.sham","press",1,"NGL","noGo",0,90,"2",3,"lose","Avoid","lose"
"731","FNMA0105",7,6,7,8,5,2977,854,0,0,"a.sham","no_press",0,"GAL","Go",0,91,"2",4,"neutral","Avoid",NA
"732","FNMA0105",7,6,7,8,5,1505,742,0,-1,"a.sham","no_press",0,"GAL","Go",0,92,"2",5,"lose","Avoid","lose"
"733","FNMA0105",6,6,7,8,5,2299,501,559,1,"a.sham","press",1,"GW","Go",1,93,"2",3,"win","Win","win"
"734","FNMA0105",6,6,7,8,5,1432,737,437,0,"a.sham","press",1,"GW","Go",1,94,"2",4,"neutral","Win",NA
"735","FNMA0105",6,6,7,8,5,3323,690,531,1,"a.sham","press",1,"GW","Go",1,95,"2",5,"win","Win","win"
"736","FNMA0105",7,6,7,8,5,2887,812,0,0,"a.sham","no_press",0,"GAL","Go",0,96,"2",6,"neutral","Avoid",NA
"737","FNMA0105",8,6,7,8,5,1484,941,0,1,"a.sham","no_press",0,"NGW","noGo",1,97,"2",3,"win","Win","win"
"738","FNMA0105",5,6,7,8,5,1364,547,0,0,"a.sham","no_press",0,"NGL","noGo",1,98,"2",4,"neutral","Avoid",NA
"739","FNMA0105",5,6,7,8,5,2185,782,0,0,"a.sham","no_press",0,"NGL","noGo",1,99,"2",5,"neutral","Avoid",NA
"740","FNMA0105",5,6,7,8,5,1434,810,0,0,"a.sham","no_press",0,"NGL","noGo",1,100,"2",6,"neutral","Avoid",NA
"741","FNMA0105",8,6,7,8,5,2330,573,0,0,"a.sham","no_press",0,"NGW","noGo",1,101,"2",4,"neutral","Win",NA
"742","FNMA0105",8,6,7,8,5,1678,513,0,1,"a.sham","no_press",0,"NGW","noGo",1,102,"2",5,"win","Win","win"
"743","FNMA0105",5,6,7,8,5,1655,839,0,0,"a.sham","no_press",0,"NGL","noGo",1,103,"2",7,"neutral","Avoid",NA
"744","FNMA0105",7,6,7,8,5,1908,509,0,-1,"a.sham","no_press",0,"GAL","Go",0,104,"2",7,"lose","Avoid","lose"
"745","FNMA0105",5,6,7,8,5,1615,739,0,0,"a.sham","no_press",0,"NGL","noGo",1,105,"2",8,"neutral","Avoid",NA
"746","FNMA0105",8,6,7,8,5,2253,922,538,0,"a.sham","press",1,"NGW","noGo",0,106,"2",6,"neutral","Win",NA
"747","FNMA0105",7,6,7,8,5,1824,731,0,-1,"a.sham","no_press",0,"GAL","Go",0,107,"2",8,"lose","Avoid","lose"
"748","FNMA0105",8,6,7,8,5,1304,908,746,0,"a.sham","press",1,"NGW","noGo",0,108,"2",7,"neutral","Win",NA
"749","FNMA0105",8,6,7,8,5,1639,765,509,0,"a.sham","press",1,"NGW","noGo",0,109,"2",8,"neutral","Win",NA
"750","FNMA0105",7,6,7,8,5,1965,804,740,-1,"a.sham","press",1,"GAL","Go",1,110,"2",9,"lose","Avoid","lose"
"751","FNMA0105",6,6,7,8,5,1206,880,640,1,"a.sham","press",1,"GW","Go",1,111,"2",6,"win","Win","win"
"752","FNMA0105",7,6,7,8,5,2335,768,0,-1,"a.sham","no_press",0,"GAL","Go",0,112,"2",10,"lose","Avoid","lose"
"753","FNMA0105",8,6,7,8,5,2291,700,0,1,"a.sham","no_press",0,"NGW","noGo",1,113,"2",9,"win","Win","win"
"754","FNMA0105",7,6,7,8,5,1674,918,0,-1,"a.sham","no_press",0,"GAL","Go",0,114,"2",11,"lose","Avoid","lose"
"755","FNMA0105",8,6,7,8,5,2359,833,1141,1,"a.sham","press",1,"NGW","noGo",0,115,"2",10,"win","Win","win"
"756","FNMA0105",5,6,7,8,5,1465,830,0,0,"a.sham","no_press",0,"NGL","noGo",1,116,"2",9,"neutral","Avoid",NA
"757","FNMA0105",8,6,7,8,5,2557,930,667,0,"a.sham","press",1,"NGW","noGo",0,117,"2",11,"neutral","Win",NA
"758","FNMA0105",7,6,7,8,5,1678,701,709,0,"a.sham","press",1,"GAL","Go",1,118,"2",12,"neutral","Avoid",NA
"759","FNMA0105",7,6,7,8,5,2388,883,357,0,"a.sham","press",1,"GAL","Go",1,119,"2",13,"neutral","Avoid",NA
"760","FNMA0105",6,6,7,8,5,2206,601,651,1,"a.sham","press",1,"GW","Go",1,120,"2",7,"win","Win","win"
"761","FNMA0105",6,6,7,8,5,1634,658,454,1,"a.sham","press",1,"GW","Go",1,121,"2",8,"win","Win","win"
"762","FNMA0105",8,6,7,8,5,1721,987,507,0,"a.sham","press",1,"NGW","noGo",0,122,"2",12,"neutral","Win",NA
"763","FNMA0105",6,6,7,8,5,2029,776,439,1,"a.sham","press",1,"GW","Go",1,123,"2",9,"win","Win","win"
"764","FNMA0105",8,6,7,8,5,2511,763,573,0,"a.sham","press",1,"NGW","noGo",0,124,"2",13,"neutral","Win",NA
"765","FNMA0105",5,6,7,8,5,1729,525,0,0,"a.sham","no_press",0,"NGL","noGo",1,125,"2",10,"neutral","Avoid",NA
"766","FNMA0105",5,6,7,8,5,2195,619,0,0,"a.sham","no_press",0,"NGL","noGo",1,126,"2",11,"neutral","Avoid",NA
"767","FNMA0105",8,6,7,8,5,2066,606,504,1,"a.sham","press",1,"NGW","noGo",0,127,"2",14,"win","Win","win"
"768","FNMA0105",5,6,7,8,5,2318,618,0,0,"a.sham","no_press",0,"NGL","noGo",1,128,"2",12,"neutral","Avoid",NA
"769","FNMA0105",6,6,7,8,5,1338,643,513,1,"a.sham","press",1,"GW","Go",1,129,"2",10,"win","Win","win"
"770","FNMA0105",6,6,7,8,5,1598,556,730,1,"a.sham","press",1,"GW","Go",1,130,"2",11,"win","Win","win"
"771","FNMA0105",7,6,7,8,5,2122,704,484,-1,"a.sham","press",1,"GAL","Go",1,131,"2",14,"lose","Avoid","lose"
"772","FNMA0105",6,6,7,8,5,2930,949,529,1,"a.sham","press",1,"GW","Go",1,132,"2",12,"win","Win","win"
"773","FNMA0105",7,6,7,8,5,2218,720,0,-1,"a.sham","no_press",0,"GAL","Go",0,133,"2",15,"lose","Avoid","lose"
"774","FNMA0105",6,6,7,8,5,2446,726,493,0,"a.sham","press",1,"GW","Go",1,134,"2",13,"neutral","Win",NA
"775","FNMA0105",6,6,7,8,5,1725,620,468,1,"a.sham","press",1,"GW","Go",1,135,"2",14,"win","Win","win"
"776","FNMA0105",8,6,7,8,5,2549,503,581,0,"a.sham","press",1,"NGW","noGo",0,136,"2",15,"neutral","Win",NA
"777","FNMA0105",7,6,7,8,5,1518,777,0,-1,"a.sham","no_press",0,"GAL","Go",0,137,"2",16,"lose","Avoid","lose"
"778","FNMA0105",5,6,7,8,5,1346,621,0,0,"a.sham","no_press",0,"NGL","noGo",1,138,"2",13,"neutral","Avoid",NA
"779","FNMA0105",8,6,7,8,5,1752,595,577,0,"a.sham","press",1,"NGW","noGo",0,139,"2",16,"neutral","Win",NA
"780","FNMA0105",8,6,7,8,5,1948,896,522,1,"a.sham","press",1,"NGW","noGo",0,140,"2",17,"win","Win","win"
"781","FNMA0105",7,6,7,8,5,2063,655,0,-1,"a.sham","no_press",0,"GAL","Go",0,141,"2",17,"lose","Avoid","lose"
"782","FNMA0105",7,6,7,8,5,1575,976,449,0,"a.sham","press",1,"GAL","Go",1,142,"2",18,"neutral","Avoid",NA
"783","FNMA0105",7,6,7,8,5,1344,541,369,0,"a.sham","press",1,"GAL","Go",1,143,"2",19,"neutral","Avoid",NA
"784","FNMA0105",6,6,7,8,5,1671,785,498,1,"a.sham","press",1,"GW","Go",1,144,"2",15,"win","Win","win"
"785","FNMA0105",6,6,7,8,5,2451,914,497,0,"a.sham","press",1,"GW","Go",1,145,"2",16,"neutral","Win",NA
"786","FNMA0105",5,6,7,8,5,2538,925,0,0,"a.sham","no_press",0,"NGL","noGo",1,146,"2",14,"neutral","Avoid",NA
"787","FNMA0105",5,6,7,8,5,2262,549,0,0,"a.sham","no_press",0,"NGL","noGo",1,147,"2",15,"neutral","Avoid",NA
"788","FNMA0105",5,6,7,8,5,2538,883,0,0,"a.sham","no_press",0,"NGL","noGo",1,148,"2",16,"neutral","Avoid",NA
"789","FNMA0105",8,6,7,8,5,1196,678,465,0,"a.sham","press",1,"NGW","noGo",0,149,"2",18,"neutral","Win",NA
"790","FNMA0105",6,6,7,8,5,1825,718,520,1,"a.sham","press",1,"GW","Go",1,150,"2",17,"win","Win","win"
"791","FNMA0105",7,6,7,8,5,2126,818,690,0,"a.sham","press",1,"GAL","Go",1,151,"2",20,"neutral","Avoid",NA
"792","FNMA0105",8,6,7,8,5,2964,954,452,0,"a.sham","press",1,"NGW","noGo",0,152,"2",19,"neutral","Win",NA
"793","FNMA0105",6,6,7,8,5,1921,930,505,1,"a.sham","press",1,"GW","Go",1,153,"2",18,"win","Win","win"
"794","FNMA0105",5,6,7,8,5,1967,535,431,0,"a.sham","press",1,"NGL","noGo",0,154,"2",17,"neutral","Avoid",NA
"795","FNMA0105",5,6,7,8,5,2650,723,415,-1,"a.sham","press",1,"NGL","noGo",0,155,"2",18,"lose","Avoid","lose"
"796","FNMA0105",5,6,7,8,5,1504,975,0,-1,"a.sham","no_press",0,"NGL","noGo",1,156,"2",19,"lose","Avoid","lose"
"797","FNMA0105",6,6,7,8,5,3626,833,434,1,"a.sham","press",1,"GW","Go",1,157,"2",19,"win","Win","win"
"798","FNMA0105",5,6,7,8,5,2125,732,389,-1,"a.sham","press",1,"NGL","noGo",0,158,"2",20,"lose","Avoid","lose"
"799","FNMA0105",6,6,7,8,5,2171,668,590,1,"a.sham","press",1,"GW","Go",1,159,"2",20,"win","Win","win"
"800","FNMA0105",8,6,7,8,5,2103,728,0,1,"a.sham","no_press",0,"NGW","noGo",1,160,"2",20,"win","Win","win"
"801","FNMA0105",9,10,11,12,9,2776,990,705,-1,"a.sham","press",1,"NGL","noGo",0,161,"3",1,"lose","Avoid","lose"
"802","FNMA0105",9,10,11,12,9,1736,719,623,-1,"a.sham","press",1,"NGL","noGo",0,162,"3",2,"lose","Avoid","lose"
"803","FNMA0105",10,10,11,12,9,2036,728,617,1,"a.sham","press",1,"GW","Go",1,163,"3",1,"win","Win","win"
"804","FNMA0105",11,10,11,12,9,2029,517,650,0,"a.sham","press",1,"GAL","Go",1,164,"3",1,"neutral","Avoid",NA
"805","FNMA0105",11,10,11,12,9,2444,574,445,0,"a.sham","press",1,"GAL","Go",1,165,"3",2,"neutral","Avoid",NA
"806","FNMA0105",11,10,11,12,9,1511,918,0,-1,"a.sham","no_press",0,"GAL","Go",0,166,"3",3,"lose","Avoid","lose"
"807","FNMA0105",11,10,11,12,9,1959,796,1268,0,"a.sham","press",1,"GAL","Go",1,167,"3",4,"neutral","Avoid",NA
"808","FNMA0105",11,10,11,12,9,1456,804,420,-1,"a.sham","press",1,"GAL","Go",1,168,"3",5,"lose","Avoid","lose"
"809","FNMA0105",9,10,11,12,9,2018,583,728,-1,"a.sham","press",1,"NGL","noGo",0,169,"3",3,"lose","Avoid","lose"
"810","FNMA0105",12,10,11,12,9,1784,564,0,1,"a.sham","no_press",0,"NGW","noGo",1,170,"3",1,"win","Win","win"
"811","FNMA0105",10,10,11,12,9,2547,676,745,1,"a.sham","press",1,"GW","Go",1,171,"3",2,"win","Win","win"
"812","FNMA0105",11,10,11,12,9,2548,527,0,-1,"a.sham","no_press",0,"GAL","Go",0,172,"3",6,"lose","Avoid","lose"
"813","FNMA0105",11,10,11,12,9,1249,670,471,0,"a.sham","press",1,"GAL","Go",1,173,"3",7,"neutral","Avoid",NA
"814","FNMA0105",10,10,11,12,9,2381,780,1212,1,"a.sham","press",1,"GW","Go",1,174,"3",3,"win","Win","win"
"815","FNMA0105",12,10,11,12,9,2822,621,0,1,"a.sham","no_press",0,"NGW","noGo",1,175,"3",2,"win","Win","win"
"816","FNMA0105",9,10,11,12,9,1743,714,0,0,"a.sham","no_press",0,"NGL","noGo",1,176,"3",4,"neutral","Avoid",NA
"817","FNMA0105",11,10,11,12,9,3385,991,0,-1,"a.sham","no_press",0,"GAL","Go",0,177,"3",8,"lose","Avoid","lose"
"818","FNMA0105",9,10,11,12,9,1620,821,0,-1,"a.sham","no_press",0,"NGL","noGo",1,178,"3",5,"lose","Avoid","lose"
"819","FNMA0105",11,10,11,12,9,2724,784,0,-1,"a.sham","no_press",0,"GAL","Go",0,179,"3",9,"lose","Avoid","lose"
"820","FNMA0105",12,10,11,12,9,1000,906,0,1,"a.sham","no_press",0,"NGW","noGo",1,180,"3",3,"win","Win","win"
"821","FNMA0105",12,10,11,12,9,1939,785,0,1,"a.sham","no_press",0,"NGW","noGo",1,181,"3",4,"win","Win","win"
"822","FNMA0105",9,10,11,12,9,1746,550,0,0,"a.sham","no_press",0,"NGL","noGo",1,182,"3",6,"neutral","Avoid",NA
"823","FNMA0105",9,10,11,12,9,2615,600,1275,-1,"a.sham","press",1,"NGL","noGo",0,183,"3",7,"lose","Avoid","lose"
"824","FNMA0105",12,10,11,12,9,1845,859,0,1,"a.sham","no_press",0,"NGW","noGo",1,184,"3",5,"win","Win","win"
"825","FNMA0105",12,10,11,12,9,1266,652,0,0,"a.sham","no_press",0,"NGW","noGo",1,185,"3",6,"neutral","Win",NA
"826","FNMA0105",12,10,11,12,9,2318,747,0,1,"a.sham","no_press",0,"NGW","noGo",1,186,"3",7,"win","Win","win"
"827","FNMA0105",12,10,11,12,9,3515,786,0,1,"a.sham","no_press",0,"NGW","noGo",1,187,"3",8,"win","Win","win"
"828","FNMA0105",9,10,11,12,9,1249,804,0,0,"a.sham","no_press",0,"NGL","noGo",1,188,"3",8,"neutral","Avoid",NA
"829","FNMA0105",9,10,11,12,9,1879,839,0,0,"a.sham","no_press",0,"NGL","noGo",1,189,"3",9,"neutral","Avoid",NA
"830","FNMA0105",10,10,11,12,9,1788,539,1039,0,"a.sham","press",1,"GW","Go",1,190,"3",4,"neutral","Win",NA
"831","FNMA0105",12,10,11,12,9,2273,980,0,1,"a.sham","no_press",0,"NGW","noGo",1,191,"3",9,"win","Win","win"
"832","FNMA0105",9,10,11,12,9,2019,876,781,-1,"a.sham","press",1,"NGL","noGo",0,192,"3",10,"lose","Avoid","lose"
"833","FNMA0105",11,10,11,12,9,2415,566,543,0,"a.sham","press",1,"GAL","Go",1,193,"3",10,"neutral","Avoid",NA
"834","FNMA0105",12,10,11,12,9,1885,853,0,1,"a.sham","no_press",0,"NGW","noGo",1,194,"3",10,"win","Win","win"
"835","FNMA0105",10,10,11,12,9,2319,719,538,1,"a.sham","press",1,"GW","Go",1,195,"3",5,"win","Win","win"
"836","FNMA0105",9,10,11,12,9,2337,560,539,-1,"a.sham","press",1,"NGL","noGo",0,196,"3",11,"lose","Avoid","lose"
"837","FNMA0105",12,10,11,12,9,1990,691,574,0,"a.sham","press",1,"NGW","noGo",0,197,"3",11,"neutral","Win",NA
"838","FNMA0105",11,10,11,12,9,1851,847,784,0,"a.sham","press",1,"GAL","Go",1,198,"3",11,"neutral","Avoid",NA
"839","FNMA0105",10,10,11,12,9,2254,770,531,1,"a.sham","press",1,"GW","Go",1,199,"3",6,"win","Win","win"
"840","FNMA0105",10,10,11,12,9,2298,942,514,1,"a.sham","press",1,"GW","Go",1,200,"3",7,"win","Win","win"
"841","FNMA0105",9,10,11,12,9,1909,923,0,0,"a.sham","no_press",0,"NGL","noGo",1,201,"3",12,"neutral","Avoid",NA
"842","FNMA0105",10,10,11,12,9,1688,577,627,1,"a.sham","press",1,"GW","Go",1,202,"3",8,"win","Win","win"
"843","FNMA0105",10,10,11,12,9,2571,623,509,1,"a.sham","press",1,"GW","Go",1,203,"3",9,"win","Win","win"
"844","FNMA0105",10,10,11,12,9,2510,579,512,1,"a.sham","press",1,"GW","Go",1,204,"3",10,"win","Win","win"
"845","FNMA0105",9,10,11,12,9,2234,632,0,-1,"a.sham","no_press",0,"NGL","noGo",1,205,"3",13,"lose","Avoid","lose"
"846","FNMA0105",12,10,11,12,9,1445,533,499,0,"a.sham","press",1,"NGW","noGo",0,206,"3",12,"neutral","Win",NA
"847","FNMA0105",12,10,11,12,9,1559,757,0,1,"a.sham","no_press",0,"NGW","noGo",1,207,"3",13,"win","Win","win"
"848","FNMA0105",11,10,11,12,9,2272,528,655,-1,"a.sham","press",1,"GAL","Go",1,208,"3",12,"lose","Avoid","lose"
"849","FNMA0105",12,10,11,12,9,2252,975,0,1,"a.sham","no_press",0,"NGW","noGo",1,209,"3",14,"win","Win","win"
"850","FNMA0105",11,10,11,12,9,1289,639,577,-1,"a.sham","press",1,"GAL","Go",1,210,"3",13,"lose","Avoid","lose"
"851","FNMA0105",10,10,11,12,9,2372,857,555,1,"a.sham","press",1,"GW","Go",1,211,"3",11,"win","Win","win"
"852","FNMA0105",10,10,11,12,9,1785,690,640,0,"a.sham","press",1,"GW","Go",1,212,"3",12,"neutral","Win",NA
"853","FNMA0105",10,10,11,12,9,2907,650,379,1,"a.sham","press",1,"GW","Go",1,213,"3",13,"win","Win","win"
"854","FNMA0105",11,10,11,12,9,2227,736,934,0,"a.sham","press",1,"GAL","Go",1,214,"3",14,"neutral","Avoid",NA
"855","FNMA0105",10,10,11,12,9,1407,562,536,1,"a.sham","press",1,"GW","Go",1,215,"3",14,"win","Win","win"
"856","FNMA0105",12,10,11,12,9,2131,653,0,1,"a.sham","no_press",0,"NGW","noGo",1,216,"3",15,"win","Win","win"
"857","FNMA0105",11,10,11,12,9,2131,879,942,0,"a.sham","press",1,"GAL","Go",1,217,"3",15,"neutral","Avoid",NA
"858","FNMA0105",10,10,11,12,9,1552,993,516,0,"a.sham","press",1,"GW","Go",1,218,"3",15,"neutral","Win",NA
"859","FNMA0105",9,10,11,12,9,2132,651,0,0,"a.sham","no_press",0,"NGL","noGo",1,219,"3",14,"neutral","Avoid",NA
"860","FNMA0105",11,10,11,12,9,1861,643,803,-1,"a.sham","press",1,"GAL","Go",1,220,"3",16,"lose","Avoid","lose"
"861","FNMA0105",9,10,11,12,9,2817,538,0,0,"a.sham","no_press",0,"NGL","noGo",1,221,"3",15,"neutral","Avoid",NA
"862","FNMA0105",12,10,11,12,9,1717,537,0,0,"a.sham","no_press",0,"NGW","noGo",1,222,"3",16,"neutral","Win",NA
"863","FNMA0105",9,10,11,12,9,2467,541,0,0,"a.sham","no_press",0,"NGL","noGo",1,223,"3",16,"neutral","Avoid",NA
"864","FNMA0105",9,10,11,12,9,2184,502,0,0,"a.sham","no_press",0,"NGL","noGo",1,224,"3",17,"neutral","Avoid",NA
"865","FNMA0105",11,10,11,12,9,2057,649,769,0,"a.sham","press",1,"GAL","Go",1,225,"3",17,"neutral","Avoid",NA
"866","FNMA0105",12,10,11,12,9,1588,532,0,0,"a.sham","no_press",0,"NGW","noGo",1,226,"3",17,"neutral","Win",NA
"867","FNMA0105",11,10,11,12,9,2518,720,587,0,"a.sham","press",1,"GAL","Go",1,227,"3",18,"neutral","Avoid",NA
"868","FNMA0105",11,10,11,12,9,2601,781,520,0,"a.sham","press",1,"GAL","Go",1,228,"3",19,"neutral","Avoid",NA
"869","FNMA0105",12,10,11,12,9,2169,836,0,1,"a.sham","no_press",0,"NGW","noGo",1,229,"3",18,"win","Win","win"
"870","FNMA0105",12,10,11,12,9,2103,969,0,0,"a.sham","no_press",0,"NGW","noGo",1,230,"3",19,"neutral","Win",NA
"871","FNMA0105",10,10,11,12,9,1326,903,374,1,"a.sham","press",1,"GW","Go",1,231,"3",16,"win","Win","win"
"872","FNMA0105",9,10,11,12,9,1848,558,0,0,"a.sham","no_press",0,"NGL","noGo",1,232,"3",18,"neutral","Avoid",NA
"873","FNMA0105",11,10,11,12,9,1189,727,692,0,"a.sham","press",1,"GAL","Go",1,233,"3",20,"neutral","Avoid",NA
"874","FNMA0105",9,10,11,12,9,1885,948,0,0,"a.sham","no_press",0,"NGL","noGo",1,234,"3",19,"neutral","Avoid",NA
"875","FNMA0105",9,10,11,12,9,2404,693,0,-1,"a.sham","no_press",0,"NGL","noGo",1,235,"3",20,"lose","Avoid","lose"
"876","FNMA0105",12,10,11,12,9,2121,977,0,1,"a.sham","no_press",0,"NGW","noGo",1,236,"3",20,"win","Win","win"
"877","FNMA0105",10,10,11,12,9,2074,713,405,1,"a.sham","press",1,"GW","Go",1,237,"3",17,"win","Win","win"
"878","FNMA0105",10,10,11,12,9,1723,778,542,0,"a.sham","press",1,"GW","Go",1,238,"3",18,"neutral","Win",NA
"879","FNMA0105",10,10,11,12,9,1951,568,513,1,"a.sham","press",1,"GW","Go",1,239,"3",19,"win","Win","win"
"880","FNMA0105",10,10,11,12,9,2357,789,442,1,"a.sham","press",1,"GW","Go",1,240,"3",20,"win","Win","win"
"881","FNMA0105",15,14,13,16,15,1630,641,672,-1,"a.sham","press",1,"NGL","noGo",0,241,"4",1,"lose","Avoid","lose"
"882","FNMA0105",16,14,13,16,15,1883,571,742,0,"a.sham","press",1,"NGW","noGo",0,242,"4",1,"neutral","Win",NA
"883","FNMA0105",14,14,13,16,15,2099,721,504,1,"a.sham","press",1,"GW","Go",1,243,"4",1,"win","Win","win"
"884","FNMA0105",16,14,13,16,15,1453,706,506,0,"a.sham","press",1,"NGW","noGo",0,244,"4",2,"neutral","Win",NA
"885","FNMA0105",14,14,13,16,15,2503,825,583,1,"a.sham","press",1,"GW","Go",1,245,"4",2,"win","Win","win"
"886","FNMA0105",16,14,13,16,15,2478,928,0,1,"a.sham","no_press",0,"NGW","noGo",1,246,"4",3,"win","Win","win"
"887","FNMA0105",14,14,13,16,15,2692,544,802,1,"a.sham","press",1,"GW","Go",1,247,"4",3,"win","Win","win"
"888","FNMA0105",13,14,13,16,15,1922,888,653,0,"a.sham","press",1,"GAL","Go",1,248,"4",1,"neutral","Avoid",NA
"889","FNMA0105",14,14,13,16,15,2315,928,434,1,"a.sham","press",1,"GW","Go",1,249,"4",4,"win","Win","win"
"890","FNMA0105",16,14,13,16,15,1954,969,0,1,"a.sham","no_press",0,"NGW","noGo",1,250,"4",4,"win","Win","win"
"891","FNMA0105",15,14,13,16,15,1166,987,0,0,"a.sham","no_press",0,"NGL","noGo",1,251,"4",2,"neutral","Avoid",NA
"892","FNMA0105",15,14,13,16,15,1880,543,0,0,"a.sham","no_press",0,"NGL","noGo",1,252,"4",3,"neutral","Avoid",NA
"893","FNMA0105",15,14,13,16,15,1458,936,0,0,"a.sham","no_press",0,"NGL","noGo",1,253,"4",4,"neutral","Avoid",NA
"894","FNMA0105",15,14,13,16,15,1547,593,0,0,"a.sham","no_press",0,"NGL","noGo",1,254,"4",5,"neutral","Avoid",NA
"895","FNMA0105",13,14,13,16,15,1826,721,0,0,"a.sham","no_press",0,"GAL","Go",0,255,"4",2,"neutral","Avoid",NA
"896","FNMA0105",16,14,13,16,15,3128,884,0,1,"a.sham","no_press",0,"NGW","noGo",1,256,"4",5,"win","Win","win"
"897","FNMA0105",14,14,13,16,15,1861,958,622,0,"a.sham","press",1,"GW","Go",1,257,"4",5,"neutral","Win",NA
"898","FNMA0105",13,14,13,16,15,1000,574,0,-1,"a.sham","no_press",0,"GAL","Go",0,258,"4",3,"lose","Avoid","lose"
"899","FNMA0105",16,14,13,16,15,2873,748,0,1,"a.sham","no_press",0,"NGW","noGo",1,259,"4",6,"win","Win","win"
"900","FNMA0105",14,14,13,16,15,2080,508,508,0,"a.sham","press",1,"GW","Go",1,260,"4",6,"neutral","Win",NA
"901","FNMA0105",13,14,13,16,15,2349,547,651,0,"a.sham","press",1,"GAL","Go",1,261,"4",4,"neutral","Avoid",NA
"902","FNMA0105",15,14,13,16,15,1936,862,0,0,"a.sham","no_press",0,"NGL","noGo",1,262,"4",6,"neutral","Avoid",NA
"903","FNMA0105",13,14,13,16,15,2277,560,524,0,"a.sham","press",1,"GAL","Go",1,263,"4",5,"neutral","Avoid",NA
"904","FNMA0105",14,14,13,16,15,2306,648,538,1,"a.sham","press",1,"GW","Go",1,264,"4",7,"win","Win","win"
"905","FNMA0105",14,14,13,16,15,1889,532,553,1,"a.sham","press",1,"GW","Go",1,265,"4",8,"win","Win","win"
"906","FNMA0105",13,14,13,16,15,1942,521,821,0,"a.sham","press",1,"GAL","Go",1,266,"4",6,"neutral","Avoid",NA
"907","FNMA0105",16,14,13,16,15,1869,856,0,1,"a.sham","no_press",0,"NGW","noGo",1,267,"4",7,"win","Win","win"
"908","FNMA0105",16,14,13,16,15,2547,979,0,1,"a.sham","no_press",0,"NGW","noGo",1,268,"4",8,"win","Win","win"
"909","FNMA0105",15,14,13,16,15,2818,528,0,0,"a.sham","no_press",0,"NGL","noGo",1,269,"4",7,"neutral","Avoid",NA
"910","FNMA0105",14,14,13,16,15,1576,541,838,1,"a.sham","press",1,"GW","Go",1,270,"4",9,"win","Win","win"
"911","FNMA0105",13,14,13,16,15,2152,976,617,0,"a.sham","press",1,"GAL","Go",1,271,"4",7,"neutral","Avoid",NA
"912","FNMA0105",13,14,13,16,15,1927,962,0,-1,"a.sham","no_press",0,"GAL","Go",0,272,"4",8,"lose","Avoid","lose"
"913","FNMA0105",13,14,13,16,15,2018,768,0,-1,"a.sham","no_press",0,"GAL","Go",0,273,"4",9,"lose","Avoid","lose"
"914","FNMA0105",15,14,13,16,15,1182,589,814,-1,"a.sham","press",1,"NGL","noGo",0,274,"4",8,"lose","Avoid","lose"
"915","FNMA0105",14,14,13,16,15,2785,724,572,1,"a.sham","press",1,"GW","Go",1,275,"4",10,"win","Win","win"
"916","FNMA0105",13,14,13,16,15,1942,726,669,-1,"a.sham","press",1,"GAL","Go",1,276,"4",10,"lose","Avoid","lose"
"917","FNMA0105",13,14,13,16,15,3020,699,1147,0,"a.sham","press",1,"GAL","Go",1,277,"4",11,"neutral","Avoid",NA
"918","FNMA0105",13,14,13,16,15,2493,920,354,0,"a.sham","press",1,"GAL","Go",1,278,"4",12,"neutral","Avoid",NA
"919","FNMA0105",16,14,13,16,15,2221,789,0,1,"a.sham","no_press",0,"NGW","noGo",1,279,"4",9,"win","Win","win"
