"","ID","stim_ID","GW","GAL","NGW","NGL","jitter1","jitter2","RT","outcomefeed","response","GoResponse","Cue","req_action","correct","win_lose_neutral","OutValence","trial_number","block","TrialCount"
"1","CTLB0360",2,4,1,2,3,2032,764,0,1,"no_press",0,"NGW","noGo",1,"win","Win",1,"1",1
"2","CTLB0360",4,4,1,2,3,2336,593,1311,1,"press",1,"GW","Go",1,"win","Win",2,"1",1
"3","CTLB0360",3,4,1,2,3,1883,678,0,0,"no_press",0,"NGL","noGo",1,"neutral","Avoid",3,"1",1
"4","CTLB0360",3,4,1,2,3,1943,817,0,0,"no_press",0,"NGL","noGo",1,"neutral","Avoid",4,"1",2
"5","CTLB0360",4,4,1,2,3,1966,739,855,1,"press",1,"GW","Go",1,"win","Win",5,"1",2
"6","CTLB0360",1,4,1,2,3,1630,506,0,-1,"no_press",0,"GAL","Go",0,"lose","Avoid",6,"1",1
"7","CTLB0360",2,4,1,2,3,2283,970,728,0,"press",1,"NGW","noGo",0,"neutral","Win",7,"1",2
"8","CTLB0360",4,4,1,2,3,2315,560,1240,0,"press",1,"GW","Go",1,"neutral","Win",8,"1",3
"9","CTLB0360",4,4,1,2,3,2129,574,589,1,"press",1,"GW","Go",1,"win","Win",9,"1",4
"10","CTLB0360",4,4,1,2,3,1364,832,822,0,"press",1,"GW","Go",1,"neutral","Win",10,"1",5
"11","CTLB0360",4,4,1,2,3,1964,809,1108,1,"press",1,"GW","Go",1,"win","Win",11,"1",6
"12","CTLB0360",4,4,1,2,3,1845,611,560,1,"press",1,"GW","Go",1,"win","Win",12,"1",7
"13","CTLB0360",1,4,1,2,3,3412,780,0,-1,"no_press",0,"GAL","Go",0,"lose","Avoid",13,"1",2
"14","CTLB0360",4,4,1,2,3,1206,817,673,1,"press",1,"GW","Go",1,"win","Win",14,"1",8
"15","CTLB0360",4,4,1,2,3,1596,703,655,1,"press",1,"GW","Go",1,"win","Win",15,"1",9
"16","CTLB0360",3,4,1,2,3,2528,580,0,-1,"no_press",0,"NGL","noGo",1,"lose","Avoid",16,"1",3
"17","CTLB0360",4,4,1,2,3,1678,753,891,1,"press",1,"GW","Go",1,"win","Win",17,"1",10
"18","CTLB0360",3,4,1,2,3,2853,609,783,-1,"press",1,"NGL","noGo",0,"lose","Avoid",18,"1",4
"19","CTLB0360",3,4,1,2,3,1959,762,0,-1,"no_press",0,"NGL","noGo",1,"lose","Avoid",19,"1",5
"20","CTLB0360",1,4,1,2,3,1869,692,1011,0,"press",1,"GAL","Go",1,"neutral","Avoid",20,"1",3
"21","CTLB0360",4,4,1,2,3,1482,635,630,1,"press",1,"GW","Go",1,"win","Win",21,"1",11
"22","CTLB0360",1,4,1,2,3,2464,892,819,0,"press",1,"GAL","Go",1,"neutral","Avoid",22,"1",4
"23","CTLB0360",2,4,1,2,3,2513,734,1290,0,"press",1,"NGW","noGo",0,"neutral","Win",23,"1",3
"24","CTLB0360",2,4,1,2,3,1000,746,654,0,"press",1,"NGW","noGo",0,"neutral","Win",24,"1",4
"25","CTLB0360",1,4,1,2,3,1453,561,1289,0,"press",1,"GAL","Go",1,"neutral","Avoid",25,"1",5
"26","CTLB0360",2,4,1,2,3,2287,906,771,1,"press",1,"NGW","noGo",0,"win","Win",26,"1",5
"27","CTLB0360",4,4,1,2,3,1246,661,564,1,"press",1,"GW","Go",1,"win","Win",27,"1",12
"28","CTLB0360",2,4,1,2,3,1885,521,739,0,"press",1,"NGW","noGo",0,"neutral","Win",28,"1",6
"29","CTLB0360",1,4,1,2,3,1432,582,842,0,"press",1,"GAL","Go",1,"neutral","Avoid",29,"1",6
"30","CTLB0360",4,4,1,2,3,1942,633,536,0,"press",1,"GW","Go",1,"neutral","Win",30,"1",13
"31","CTLB0360",4,4,1,2,3,1942,904,588,1,"press",1,"GW","Go",1,"win","Win",31,"1",14
"32","CTLB0360",2,4,1,2,3,2388,803,612,1,"press",1,"NGW","noGo",0,"win","Win",32,"1",7
"33","CTLB0360",4,4,1,2,3,2057,652,502,1,"press",1,"GW","Go",1,"win","Win",33,"1",15
"34","CTLB0360",3,4,1,2,3,2207,648,0,0,"no_press",0,"NGL","noGo",1,"neutral","Avoid",34,"1",6
"35","CTLB0360",1,4,1,2,3,1932,657,1235,0,"press",1,"GAL","Go",1,"neutral","Avoid",35,"1",7
"36","CTLB0360",1,4,1,2,3,1204,801,658,-1,"press",1,"GAL","Go",1,"lose","Avoid",36,"1",8
"37","CTLB0360",1,4,1,2,3,1709,641,0,-1,"no_press",0,"GAL","Go",0,"lose","Avoid",37,"1",9
"38","CTLB0360",3,4,1,2,3,1407,574,0,0,"no_press",0,"NGL","noGo",1,"neutral","Avoid",38,"1",7
"39","CTLB0360",4,4,1,2,3,1511,988,635,1,"press",1,"GW","Go",1,"win","Win",39,"1",16
"40","CTLB0360",1,4,1,2,3,2523,882,0,-1,"no_press",0,"GAL","Go",0,"lose","Avoid",40,"1",10
"41","CTLB0360",1,4,1,2,3,1511,836,488,-1,"press",1,"GAL","Go",1,"lose","Avoid",41,"1",11
"42","CTLB0360",1,4,1,2,3,1479,946,1078,0,"press",1,"GAL","Go",1,"neutral","Avoid",42,"1",12
"43","CTLB0360",4,4,1,2,3,1908,639,973,1,"press",1,"GW","Go",1,"win","Win",43,"1",17
"44","CTLB0360",3,4,1,2,3,1000,664,0,0,"no_press",0,"NGL","noGo",1,"neutral","Avoid",44,"1",8
"45","CTLB0360",2,4,1,2,3,2998,975,0,0,"no_press",0,"NGW","noGo",1,"neutral","Win",45,"1",8
"46","CTLB0360",1,4,1,2,3,2794,743,1133,0,"press",1,"GAL","Go",1,"neutral","Avoid",46,"1",13
"47","CTLB0360",2,4,1,2,3,1266,836,635,0,"press",1,"NGW","noGo",0,"neutral","Win",47,"1",9
"48","CTLB0360",1,4,1,2,3,1614,758,529,0,"press",1,"GAL","Go",1,"neutral","Avoid",48,"1",14
"49","CTLB0360",2,4,1,2,3,1249,727,746,0,"press",1,"NGW","noGo",0,"neutral","Win",49,"1",10
"50","CTLB0360",3,4,1,2,3,2000,875,0,0,"no_press",0,"NGL","noGo",1,"neutral","Avoid",50,"1",9
"51","CTLB0360",1,4,1,2,3,2306,683,0,-1,"no_press",0,"GAL","Go",0,"lose","Avoid",51,"1",15
"52","CTLB0360",3,4,1,2,3,1462,578,0,0,"no_press",0,"NGL","noGo",1,"neutral","Avoid",52,"1",10
"53","CTLB0360",2,4,1,2,3,1536,902,410,0,"press",1,"NGW","noGo",0,"neutral","Win",53,"1",11
"54","CTLB0360",3,4,1,2,3,1787,623,0,0,"no_press",0,"NGL","noGo",1,"neutral","Avoid",54,"1",11
"55","CTLB0360",2,4,1,2,3,2103,872,851,0,"press",1,"NGW","noGo",0,"neutral","Win",55,"1",12
"56","CTLB0360",2,4,1,2,3,1000,685,0,1,"no_press",0,"NGW","noGo",1,"win","Win",56,"1",13
"57","CTLB0360",4,4,1,2,3,3016,513,647,1,"press",1,"GW","Go",1,"win","Win",57,"1",18
"58","CTLB0360",2,4,1,2,3,2063,601,0,0,"no_press",0,"NGW","noGo",1,"neutral","Win",58,"1",14
"59","CTLB0360",3,4,1,2,3,1559,933,0,0,"no_press",0,"NGL","noGo",1,"neutral","Avoid",59,"1",12
"60","CTLB0360",2,4,1,2,3,1806,944,577,0,"press",1,"NGW","noGo",0,"neutral","Win",60,"1",15
"61","CTLB0360",1,4,1,2,3,5000,522,514,0,"press",1,"GAL","Go",1,"neutral","Avoid",61,"1",16
"62","CTLB0360",3,4,1,2,3,3626,959,0,-1,"no_press",0,"NGL","noGo",1,"lose","Avoid",62,"1",13
"63","CTLB0360",2,4,1,2,3,1503,882,545,0,"press",1,"NGW","noGo",0,"neutral","Win",63,"1",16
"64","CTLB0360",4,4,1,2,3,1289,639,576,1,"press",1,"GW","Go",1,"win","Win",64,"1",19
"65","CTLB0360",4,4,1,2,3,2164,859,862,0,"press",1,"GW","Go",1,"neutral","Win",65,"1",20
"66","CTLB0360",2,4,1,2,3,1330,967,659,0,"press",1,"NGW","noGo",0,"neutral","Win",66,"1",17
"67","CTLB0360",3,4,1,2,3,2245,967,1142,-1,"press",1,"NGL","noGo",0,"lose","Avoid",67,"1",14
"68","CTLB0360",3,4,1,2,3,1772,656,0,0,"no_press",0,"NGL","noGo",1,"neutral","Avoid",68,"1",15
"69","CTLB0360",2,4,1,2,3,2169,907,656,0,"press",1,"NGW","noGo",0,"neutral","Win",69,"1",18
"70","CTLB0360",4,4,1,2,3,2785,823,627,1,"press",1,"GW","Go",1,"win","Win",70,"1",21
"71","CTLB0360",4,4,1,2,3,1634,800,552,1,"press",1,"GW","Go",1,"win","Win",71,"1",22
"72","CTLB0360",2,4,1,2,3,1457,798,864,0,"press",1,"NGW","noGo",0,"neutral","Win",72,"1",19
"73","CTLB0360",3,4,1,2,3,2066,549,0,0,"no_press",0,"NGL","noGo",1,"neutral","Avoid",73,"1",16
"74","CTLB0360",3,4,1,2,3,2140,918,402,-1,"press",1,"NGL","noGo",0,"lose","Avoid",74,"1",17
"75","CTLB0360",1,4,1,2,3,2239,765,0,0,"no_press",0,"GAL","Go",0,"neutral","Avoid",75,"1",17
"76","CTLB0360",1,4,1,2,3,2980,820,0,-1,"no_press",0,"GAL","Go",0,"lose","Avoid",76,"1",18
"77","CTLB0360",2,4,1,2,3,1289,887,832,1,"press",1,"NGW","noGo",0,"win","Win",77,"1",20
"78","CTLB0360",2,4,1,2,3,2444,788,660,0,"press",1,"NGW","noGo",0,"neutral","Win",78,"1",21
"79","CTLB0360",2,4,1,2,3,1693,914,759,0,"press",1,"NGW","noGo",0,"neutral","Win",79,"1",22
"80","CTLB0360",3,4,1,2,3,2380,860,0,-1,"no_press",0,"NGL","noGo",1,"lose","Avoid",80,"1",18
"81","CTLB0360",2,4,1,2,3,2323,912,523,0,"press",1,"NGW","noGo",0,"neutral","Win",81,"1",23
"82","CTLB0360",3,4,1,2,3,2745,869,0,0,"no_press",0,"NGL","noGo",1,"neutral","Avoid",82,"1",19
"83","CTLB0360",2,4,1,2,3,2303,886,746,0,"press",1,"NGW","noGo",0,"neutral","Win",83,"1",24
"84","CTLB0360",1,4,1,2,3,2609,893,1178,-1,"press",1,"GAL","Go",1,"lose","Avoid",84,"1",19
"85","CTLB0360",1,4,1,2,3,1537,969,0,-1,"no_press",0,"GAL","Go",0,"lose","Avoid",85,"1",20
"86","CTLB0360",3,4,1,2,3,1810,801,0,0,"no_press",0,"NGL","noGo",1,"neutral","Avoid",86,"1",20
"87","CTLB0360",3,4,1,2,3,1992,924,0,0,"no_press",0,"NGL","noGo",1,"neutral","Avoid",87,"1",21
"88","CTLB0360",3,4,1,2,3,1479,893,0,0,"no_press",0,"NGL","noGo",1,"neutral","Avoid",88,"1",22
"89","CTLB0360",1,4,1,2,3,2885,777,484,0,"press",1,"GAL","Go",1,"neutral","Avoid",89,"1",21
"90","CTLB0360",3,4,1,2,3,2664,851,1035,-1,"press",1,"NGL","noGo",0,"lose","Avoid",90,"1",23
"91","CTLB0360",4,4,1,2,3,2615,888,1013,0,"press",1,"GW","Go",1,"neutral","Win",91,"1",23
"92","CTLB0360",1,4,1,2,3,2036,890,899,0,"press",1,"GAL","Go",1,"neutral","Avoid",92,"1",22
"93","CTLB0360",1,4,1,2,3,2367,917,479,0,"press",1,"GAL","Go",1,"neutral","Avoid",93,"1",23
"94","CTLB0360",4,4,1,2,3,1597,832,331,1,"press",1,"GW","Go",1,"win","Win",94,"1",24
"95","CTLB0360",3,4,1,2,3,2004,957,0,-1,"no_press",0,"NGL","noGo",1,"lose","Avoid",95,"1",24
"96","CTLB0360",2,4,1,2,3,1671,558,654,0,"press",1,"NGW","noGo",0,"neutral","Win",96,"1",25
"97","CTLB0360",3,4,1,2,3,3128,816,0,0,"no_press",0,"NGL","noGo",1,"neutral","Avoid",97,"1",25
"98","CTLB0360",4,4,1,2,3,1742,707,552,1,"press",1,"GW","Go",1,"win","Win",98,"1",25
"99","CTLB0360",1,4,1,2,3,1491,514,0,-1,"no_press",0,"GAL","Go",0,"lose","Avoid",99,"1",24
"100","CTLB0360",1,4,1,2,3,2745,911,1161,-1,"press",1,"GAL","Go",1,"lose","Avoid",100,"1",25
"101","CTLB0360",6,6,7,8,5,1494,930,1213,1,"press",1,"GW","Go",1,"win","Win",101,"2",1
"102","CTLB0360",5,6,7,8,5,3445,622,0,0,"no_press",0,"NGL","noGo",1,"neutral","Avoid",102,"2",1
"103","CTLB0360",7,6,7,8,5,2254,611,0,-1,"no_press",0,"GAL","Go",0,"lose","Avoid",103,"2",1
"104","CTLB0360",6,6,7,8,5,2195,561,924,1,"press",1,"GW","Go",1,"win","Win",104,"2",2
"105","CTLB0360",6,6,7,8,5,1562,879,657,0,"press",1,"GW","Go",1,"neutral","Win",105,"2",3
"106","CTLB0360",5,6,7,8,5,1752,935,0,0,"no_press",0,"NGL","noGo",1,"neutral","Avoid",106,"2",2
"107","CTLB0360",6,6,7,8,5,1795,725,595,1,"press",1,"GW","Go",1,"win","Win",107,"2",4
"108","CTLB0360",5,6,7,8,5,1847,593,1155,-1,"press",1,"NGL","noGo",0,"lose","Avoid",108,"2",3
"109","CTLB0360",7,6,7,8,5,1785,872,672,-1,"press",1,"GAL","Go",1,"lose","Avoid",109,"2",2
"110","CTLB0360",7,6,7,8,5,2930,826,578,0,"press",1,"GAL","Go",1,"neutral","Avoid",110,"2",3
"111","CTLB0360",6,6,7,8,5,1000,671,574,1,"press",1,"GW","Go",1,"win","Win",111,"2",5
"112","CTLB0360",8,6,7,8,5,2724,771,743,0,"press",1,"NGW","noGo",0,"neutral","Win",112,"2",1
"113","CTLB0360",8,6,7,8,5,2538,998,1238,0,"press",1,"NGW","noGo",0,"neutral","Win",113,"2",2
"114","CTLB0360",7,6,7,8,5,1570,922,815,-1,"press",1,"GAL","Go",1,"lose","Avoid",114,"2",4
"115","CTLB0360",7,6,7,8,5,1237,938,0,-1,"no_press",0,"GAL","Go",0,"lose","Avoid",115,"2",5
"116","CTLB0360",8,6,7,8,5,1674,863,0,0,"no_press",0,"NGW","noGo",1,"neutral","Win",116,"2",3
"117","CTLB0360",5,6,7,8,5,1812,817,657,-1,"press",1,"NGL","noGo",0,"lose","Avoid",117,"2",4
"118","CTLB0360",5,6,7,8,5,2349,875,0,-1,"no_press",0,"NGL","noGo",1,"lose","Avoid",118,"2",5
"119","CTLB0360",6,6,7,8,5,1250,758,0,0,"no_press",0,"GW","Go",0,"neutral","Win",119,"2",6
"120","CTLB0360",5,6,7,8,5,1505,698,803,-1,"press",1,"NGL","noGo",0,"lose","Avoid",120,"2",6
"121","CTLB0360",7,6,7,8,5,2337,934,586,0,"press",1,"GAL","Go",1,"neutral","Avoid",121,"2",6
"122","CTLB0360",7,6,7,8,5,2038,980,459,-1,"press",1,"GAL","Go",1,"lose","Avoid",122,"2",7
"123","CTLB0360",7,6,7,8,5,1465,745,1373,0,"press",1,"GAL","Go",1,"neutral","Avoid",123,"2",8
"124","CTLB0360",6,6,7,8,5,2315,779,1545,1,"press",1,"GW","Go",1,"win","Win",124,"2",7
"125","CTLB0360",5,6,7,8,5,3029,532,724,-1,"press",1,"NGL","noGo",0,"lose","Avoid",125,"2",7
"126","CTLB0360",7,6,7,8,5,1967,622,0,-1,"no_press",0,"GAL","Go",0,"lose","Avoid",126,"2",9
"127","CTLB0360",5,6,7,8,5,1329,650,770,-1,"press",1,"NGL","noGo",0,"lose","Avoid",127,"2",8
"128","CTLB0360",6,6,7,8,5,1547,902,0,0,"no_press",0,"GW","Go",0,"neutral","Win",128,"2",8
"129","CTLB0360",6,6,7,8,5,1326,821,641,1,"press",1,"GW","Go",1,"win","Win",129,"2",9
"130","CTLB0360",8,6,7,8,5,1483,838,675,0,"press",1,"NGW","noGo",0,"neutral","Win",130,"2",4
"131","CTLB0360",6,6,7,8,5,2227,700,898,0,"press",1,"GW","Go",1,"neutral","Win",131,"2",10
"132","CTLB0360",6,6,7,8,5,2001,653,651,1,"press",1,"GW","Go",1,"win","Win",132,"2",11
"133","CTLB0360",7,6,7,8,5,1385,561,942,0,"press",1,"GAL","Go",1,"neutral","Avoid",133,"2",10
"134","CTLB0360",8,6,7,8,5,2104,806,1307,0,"press",1,"NGW","noGo",0,"neutral","Win",134,"2",5
"135","CTLB0360",5,6,7,8,5,1402,600,960,-1,"press",1,"NGL","noGo",0,"lose","Avoid",135,"2",9
"136","CTLB0360",6,6,7,8,5,2019,507,640,1,"press",1,"GW","Go",1,"win","Win",136,"2",12
"137","CTLB0360",8,6,7,8,5,2257,971,0,1,"no_press",0,"NGW","noGo",1,"win","Win",137,"2",6
"138","CTLB0360",7,6,7,8,5,2080,560,0,-1,"no_press",0,"GAL","Go",0,"lose","Avoid",138,"2",11
"139","CTLB0360",7,6,7,8,5,3876,983,794,0,"press",1,"GAL","Go",1,"neutral","Avoid",139,"2",12
"140","CTLB0360",6,6,7,8,5,2942,641,589,1,"press",1,"GW","Go",1,"win","Win",140,"2",13
"141","CTLB0360",5,6,7,8,5,1555,778,0,0,"no_press",0,"NGL","noGo",1,"neutral","Avoid",141,"2",10
"142","CTLB0360",6,6,7,8,5,2184,626,560,1,"press",1,"GW","Go",1,"win","Win",142,"2",14
"143","CTLB0360",8,6,7,8,5,2228,631,0,1,"no_press",0,"NGW","noGo",1,"win","Win",143,"2",7
"144","CTLB0360",6,6,7,8,5,2887,729,535,1,"press",1,"GW","Go",1,"win","Win",144,"2",15
"145","CTLB0360",7,6,7,8,5,1678,971,442,0,"press",1,"GAL","Go",1,"neutral","Avoid",145,"2",13
"146","CTLB0360",8,6,7,8,5,1807,863,0,0,"no_press",0,"NGW","noGo",1,"neutral","Win",146,"2",8
"147","CTLB0360",5,6,7,8,5,1678,715,0,0,"no_press",0,"NGL","noGo",1,"neutral","Avoid",147,"2",11
"148","CTLB0360",7,6,7,8,5,2615,748,496,0,"press",1,"GAL","Go",1,"neutral","Avoid",148,"2",14
"149","CTLB0360",7,6,7,8,5,2234,912,722,0,"press",1,"GAL","Go",1,"neutral","Avoid",149,"2",15
"150","CTLB0360",8,6,7,8,5,1939,693,0,0,"no_press",0,"NGW","noGo",1,"neutral","Win",150,"2",9
"151","CTLB0360",8,6,7,8,5,2218,574,0,1,"no_press",0,"NGW","noGo",1,"win","Win",151,"2",10
"152","CTLB0360",6,6,7,8,5,2828,791,561,1,"press",1,"GW","Go",1,"win","Win",152,"2",16
"153","CTLB0360",8,6,7,8,5,2291,500,0,0,"no_press",0,"NGW","noGo",1,"neutral","Win",153,"2",11
"154","CTLB0360",5,6,7,8,5,1456,923,0,0,"no_press",0,"NGL","noGo",1,"neutral","Avoid",154,"2",12
"155","CTLB0360",8,6,7,8,5,2318,762,0,1,"no_press",0,"NGW","noGo",1,"win","Win",155,"2",12
"156","CTLB0360",8,6,7,8,5,1802,846,0,1,"no_press",0,"NGW","noGo",1,"win","Win",156,"2",13
"157","CTLB0360",8,6,7,8,5,2008,997,0,1,"no_press",0,"NGW","noGo",1,"win","Win",157,"2",14
"158","CTLB0360",5,6,7,8,5,1598,742,0,-1,"no_press",0,"NGL","noGo",1,"lose","Avoid",158,"2",13
"159","CTLB0360",6,6,7,8,5,2547,847,581,1,"press",1,"GW","Go",1,"win","Win",159,"2",17
"160","CTLB0360",8,6,7,8,5,2198,521,0,1,"no_press",0,"NGW","noGo",1,"win","Win",160,"2",15
"161","CTLB0360",8,6,7,8,5,2304,528,0,0,"no_press",0,"NGW","noGo",1,"neutral","Win",161,"2",16
"162","CTLB0360",8,6,7,8,5,2072,600,0,1,"no_press",0,"NGW","noGo",1,"win","Win",162,"2",17
"163","CTLB0360",6,6,7,8,5,2404,975,561,0,"press",1,"GW","Go",1,"neutral","Win",163,"2",18
"164","CTLB0360",6,6,7,8,5,1275,741,668,1,"press",1,"GW","Go",1,"win","Win",164,"2",19
"165","CTLB0360",8,6,7,8,5,2029,938,0,1,"no_press",0,"NGW","noGo",1,"win","Win",165,"2",18
"166","CTLB0360",8,6,7,8,5,2087,695,0,1,"no_press",0,"NGW","noGo",1,"win","Win",166,"2",19
"167","CTLB0360",5,6,7,8,5,1000,881,1346,-1,"press",1,"NGL","noGo",0,"lose","Avoid",167,"2",14
"168","CTLB0360",8,6,7,8,5,2166,797,0,1,"no_press",0,"NGW","noGo",1,"win","Win",168,"2",20
"169","CTLB0360",5,6,7,8,5,1588,691,0,-1,"no_press",0,"NGL","noGo",1,"lose","Avoid",169,"2",15
"170","CTLB0360",7,6,7,8,5,1554,963,728,0,"press",1,"GAL","Go",1,"neutral","Avoid",170,"2",16
"171","CTLB0360",5,6,7,8,5,1592,560,1489,-1,"press",1,"NGL","noGo",0,"lose","Avoid",171,"2",16
"172","CTLB0360",5,6,7,8,5,2360,826,0,0,"no_press",0,"NGL","noGo",1,"neutral","Avoid",172,"2",17
"173","CTLB0360",6,6,7,8,5,1759,670,395,1,"press",1,"GW","Go",1,"win","Win",173,"2",20
"174","CTLB0360",8,6,7,8,5,2964,644,0,1,"no_press",0,"NGW","noGo",1,"win","Win",174,"2",21
"175","CTLB0360",7,6,7,8,5,2359,974,932,0,"press",1,"GAL","Go",1,"neutral","Avoid",175,"2",17
"176","CTLB0360",8,6,7,8,5,2041,997,0,1,"no_press",0,"NGW","noGo",1,"win","Win",176,"2",22
"177","CTLB0360",7,6,7,8,5,2493,655,555,0,"press",1,"GAL","Go",1,"neutral","Avoid",177,"2",18
"178","CTLB0360",8,6,7,8,5,2719,971,0,1,"no_press",0,"NGW","noGo",1,"win","Win",178,"2",23
"179","CTLB0360",5,6,7,8,5,2209,985,0,0,"no_press",0,"NGL","noGo",1,"neutral","Avoid",179,"2",18
"180","CTLB0360",6,6,7,8,5,1354,547,603,1,"press",1,"GW","Go",1,"win","Win",180,"2",21
"181","CTLB0360",7,6,7,8,5,2085,524,779,-1,"press",1,"GAL","Go",1,"lose","Avoid",181,"2",19
"182","CTLB0360",7,6,7,8,5,3029,643,659,0,"press",1,"GAL","Go",1,"neutral","Avoid",182,"2",20
"183","CTLB0360",6,6,7,8,5,1841,727,794,1,"press",1,"GW","Go",1,"win","Win",183,"2",22
"184","CTLB0360",5,6,7,8,5,3515,978,1033,-1,"press",1,"NGL","noGo",0,"lose","Avoid",184,"2",19
"185","CTLB0360",7,6,7,8,5,1788,829,0,0,"no_press",0,"GAL","Go",0,"neutral","Avoid",185,"2",21
"186","CTLB0360",5,6,7,8,5,1826,618,0,0,"no_press",0,"NGL","noGo",1,"neutral","Avoid",186,"2",20
"187","CTLB0360",7,6,7,8,5,2506,766,440,0,"press",1,"GAL","Go",1,"neutral","Avoid",187,"2",22
"188","CTLB0360",7,6,7,8,5,3099,530,594,0,"press",1,"GAL","Go",1,"neutral","Avoid",188,"2",23
"189","CTLB0360",6,6,7,8,5,2088,885,666,0,"press",1,"GW","Go",1,"neutral","Win",189,"2",23
"190","CTLB0360",7,6,7,8,5,1524,517,521,0,"press",1,"GAL","Go",1,"neutral","Avoid",190,"2",24
"191","CTLB0360",6,6,7,8,5,3279,519,582,0,"press",1,"GW","Go",1,"neutral","Win",191,"2",24
"192","CTLB0360",5,6,7,8,5,2381,842,0,0,"no_press",0,"NGL","noGo",1,"neutral","Avoid",192,"2",21
"193","CTLB0360",5,6,7,8,5,1182,970,0,0,"no_press",0,"NGL","noGo",1,"neutral","Avoid",193,"2",22
"194","CTLB0360",5,6,7,8,5,1588,888,0,-1,"no_press",0,"NGL","noGo",1,"lose","Avoid",194,"2",23
"195","CTLB0360",5,6,7,8,5,2386,649,0,0,"no_press",0,"NGL","noGo",1,"neutral","Avoid",195,"2",24
"196","CTLB0360",7,6,7,8,5,1484,958,618,0,"press",1,"GAL","Go",1,"neutral","Avoid",196,"2",25
"197","CTLB0360",6,6,7,8,5,1931,797,543,1,"press",1,"GW","Go",1,"win","Win",197,"2",25
"198","CTLB0360",5,6,7,8,5,1932,721,1372,0,"press",1,"NGL","noGo",0,"neutral","Avoid",198,"2",25
"199","CTLB0360",8,6,7,8,5,2277,609,0,1,"no_press",0,"NGW","noGo",1,"win","Win",199,"2",24
"200","CTLB0360",8,6,7,8,5,2299,960,0,1,"no_press",0,"NGW","noGo",1,"win","Win",200,"2",25
"201","CTLB0360",12,12,9,10,11,3560,644,0,0,"no_press",0,"GW","Go",0,"neutral","Win",201,"3",1
"202","CTLB0360",12,12,9,10,11,2122,671,1350,1,"press",1,"GW","Go",1,"win","Win",202,"3",2
"203","CTLB0360",11,12,9,10,11,1864,582,0,0,"no_press",0,"NGL","noGo",1,"neutral","Avoid",203,"3",1
"204","CTLB0360",11,12,9,10,11,1196,789,784,-1,"press",1,"NGL","noGo",0,"lose","Avoid",204,"3",2
"205","CTLB0360",11,12,9,10,11,2335,531,0,-1,"no_press",0,"NGL","noGo",1,"lose","Avoid",205,"3",3
"206","CTLB0360",9,12,9,10,11,1764,590,984,0,"press",1,"GAL","Go",1,"neutral","Avoid",206,"3",1
"207","CTLB0360",12,12,9,10,11,2836,980,754,1,"press",1,"GW","Go",1,"win","Win",207,"3",3
"208","CTLB0360",11,12,9,10,11,2369,758,0,-1,"no_press",0,"NGL","noGo",1,"lose","Avoid",208,"3",4
"209","CTLB0360",10,12,9,10,11,1485,919,965,0,"press",1,"NGW","noGo",0,"neutral","Win",209,"3",1
"210","CTLB0360",9,12,9,10,11,1746,527,905,0,"press",1,"GAL","Go",1,"neutral","Avoid",210,"3",2
"211","CTLB0360",10,12,9,10,11,2548,827,775,0,"press",1,"NGW","noGo",0,"neutral","Win",211,"3",2
"212","CTLB0360",9,12,9,10,11,1771,782,603,0,"press",1,"GAL","Go",1,"neutral","Avoid",212,"3",3
"213","CTLB0360",9,12,9,10,11,2262,647,690,0,"press",1,"GAL","Go",1,"neutral","Avoid",213,"3",4
"214","CTLB0360",9,12,9,10,11,1372,674,636,0,"press",1,"GAL","Go",1,"neutral","Avoid",214,"3",5
"215","CTLB0360",11,12,9,10,11,2074,780,498,0,"press",1,"NGL","noGo",0,"neutral","Avoid",215,"3",5
"216","CTLB0360",11,12,9,10,11,2040,734,479,-1,"press",1,"NGL","noGo",0,"lose","Avoid",216,"3",6
"217","CTLB0360",9,12,9,10,11,1509,652,559,0,"press",1,"GAL","Go",1,"neutral","Avoid",217,"3",6
"218","CTLB0360",11,12,9,10,11,2247,825,511,-1,"press",1,"NGL","noGo",0,"lose","Avoid",218,"3",7
"219","CTLB0360",12,12,9,10,11,1288,792,639,0,"press",1,"GW","Go",1,"neutral","Win",219,"3",4
"220","CTLB0360",11,12,9,10,11,1948,544,0,0,"no_press",0,"NGL","noGo",1,"neutral","Avoid",220,"3",8
"221","CTLB0360",11,12,9,10,11,2034,894,0,0,"no_press",0,"NGL","noGo",1,"neutral","Avoid",221,"3",9
"222","CTLB0360",12,12,9,10,11,1825,829,628,1,"press",1,"GW","Go",1,"win","Win",222,"3",5
"223","CTLB0360",11,12,9,10,11,1613,665,0,0,"no_press",0,"NGL","noGo",1,"neutral","Avoid",223,"3",10
"224","CTLB0360",9,12,9,10,11,1855,813,730,0,"press",1,"GAL","Go",1,"neutral","Avoid",224,"3",7
"225","CTLB0360",10,12,9,10,11,2478,716,675,0,"press",1,"NGW","noGo",0,"neutral","Win",225,"3",3
"226","CTLB0360",10,12,9,10,11,2084,599,770,0,"press",1,"NGW","noGo",0,"neutral","Win",226,"3",4
"227","CTLB0360",9,12,9,10,11,2518,798,613,0,"press",1,"GAL","Go",1,"neutral","Avoid",227,"3",8
"228","CTLB0360",10,12,9,10,11,1467,939,611,0,"press",1,"NGW","noGo",0,"neutral","Win",228,"3",5
"229","CTLB0360",11,12,9,10,11,1798,529,511,-1,"press",1,"NGL","noGo",0,"lose","Avoid",229,"3",11
"230","CTLB0360",10,12,9,10,11,2097,879,0,1,"no_press",0,"NGW","noGo",1,"win","Win",230,"3",6
"231","CTLB0360",12,12,9,10,11,2818,830,876,1,"press",1,"GW","Go",1,"win","Win",231,"3",6
"232","CTLB0360",10,12,9,10,11,2319,503,842,0,"press",1,"NGW","noGo",0,"neutral","Win",232,"3",7
"233","CTLB0360",10,12,9,10,11,1938,919,580,0,"press",1,"NGW","noGo",0,"neutral","Win",233,"3",8
"234","CTLB0360",9,12,9,10,11,1990,689,0,0,"no_press",0,"GAL","Go",0,"neutral","Avoid",234,"3",9
"235","CTLB0360",9,12,9,10,11,2855,973,0,-1,"no_press",0,"GAL","Go",0,"lose","Avoid",235,"3",10
"236","CTLB0360",9,12,9,10,11,2588,867,946,0,"press",1,"GAL","Go",1,"neutral","Avoid",236,"3",11
"237","CTLB0360",11,12,9,10,11,2252,652,0,0,"no_press",0,"NGL","noGo",1,"neutral","Avoid",237,"3",12
"238","CTLB0360",10,12,9,10,11,2524,835,1152,1,"press",1,"NGW","noGo",0,"win","Win",238,"3",9
"239","CTLB0360",9,12,9,10,11,2664,992,1391,0,"press",1,"GAL","Go",1,"neutral","Avoid",239,"3",12
"240","CTLB0360",9,12,9,10,11,1461,880,889,0,"press",1,"GAL","Go",1,"neutral","Avoid",240,"3",13
"241","CTLB0360",11,12,9,10,11,1344,517,749,0,"press",1,"NGL","noGo",0,"neutral","Avoid",241,"3",13
"242","CTLB0360",12,12,9,10,11,1954,505,690,1,"press",1,"GW","Go",1,"win","Win",242,"3",7
"243","CTLB0360",10,12,9,10,11,2237,524,1385,0,"press",1,"NGW","noGo",0,"neutral","Win",243,"3",10
"244","CTLB0360",9,12,9,10,11,2250,789,693,0,"press",1,"GAL","Go",1,"neutral","Avoid",244,"3",14
"245","CTLB0360",12,12,9,10,11,2019,605,1015,1,"press",1,"GW","Go",1,"win","Win",245,"3",8
"246","CTLB0360",11,12,9,10,11,1445,605,818,-1,"press",1,"NGL","noGo",0,"lose","Avoid",246,"3",14
"247","CTLB0360",12,12,9,10,11,1829,773,879,1,"press",1,"GW","Go",1,"win","Win",247,"3",9
"248","CTLB0360",10,12,9,10,11,1889,953,1047,0,"press",1,"NGW","noGo",0,"neutral","Win",248,"3",11
"249","CTLB0360",10,12,9,10,11,2481,992,667,0,"press",1,"NGW","noGo",0,"neutral","Win",249,"3",12
"250","CTLB0360",12,12,9,10,11,2402,550,738,0,"press",1,"GW","Go",1,"neutral","Win",250,"3",10
"251","CTLB0360",12,12,9,10,11,2977,605,686,1,"press",1,"GW","Go",1,"win","Win",251,"3",11
"252","CTLB0360",12,12,9,10,11,2382,690,804,0,"press",1,"GW","Go",1,"neutral","Win",252,"3",12
"253","CTLB0360",12,12,9,10,11,2455,828,829,1,"press",1,"GW","Go",1,"win","Win",253,"3",13
"254","CTLB0360",9,12,9,10,11,1547,529,994,-1,"press",1,"GAL","Go",1,"lose","Avoid",254,"3",15
"255","CTLB0360",9,12,9,10,11,2253,718,915,0,"press",1,"GAL","Go",1,"neutral","Avoid",255,"3",16
"256","CTLB0360",12,12,9,10,11,2184,667,858,1,"press",1,"GW","Go",1,"win","Win",256,"3",14
"257","CTLB0360",10,12,9,10,11,2044,715,705,0,"press",1,"NGW","noGo",0,"neutral","Win",257,"3",13
"258","CTLB0360",11,12,9,10,11,3385,813,552,-1,"press",1,"NGL","noGo",0,"lose","Avoid",258,"3",15
"259","CTLB0360",9,12,9,10,11,1702,773,638,-1,"press",1,"GAL","Go",1,"lose","Avoid",259,"3",17
"260","CTLB0360",12,12,9,10,11,2490,752,413,1,"press",1,"GW","Go",1,"win","Win",260,"3",15
"261","CTLB0360",9,12,9,10,11,1693,659,455,-1,"press",1,"GAL","Go",1,"lose","Avoid",261,"3",18
"262","CTLB0360",11,12,9,10,11,3020,514,455,-1,"press",1,"NGL","noGo",0,"lose","Avoid",262,"3",16
"263","CTLB0360",11,12,9,10,11,1338,832,0,0,"no_press",0,"NGL","noGo",1,"neutral","Avoid",263,"3",17
"264","CTLB0360",11,12,9,10,11,1822,633,0,0,"no_press",0,"NGL","noGo",1,"neutral","Avoid",264,"3",18
"265","CTLB0360",9,12,9,10,11,1578,963,0,-1,"no_press",0,"GAL","Go",0,"lose","Avoid",265,"3",19
"266","CTLB0360",12,12,9,10,11,2045,547,895,0,"press",1,"GW","Go",1,"neutral","Win",266,"3",16
"267","CTLB0360",10,12,9,10,11,1784,911,680,0,"press",1,"NGW","noGo",0,"neutral","Win",267,"3",14
"268","CTLB0360",10,12,9,10,11,2357,741,676,0,"press",1,"NGW","noGo",0,"neutral","Win",268,"3",15
"269","CTLB0360",12,12,9,10,11,2080,830,977,1,"press",1,"GW","Go",1,"win","Win",269,"3",17
"270","CTLB0360",11,12,9,10,11,2907,551,0,0,"no_press",0,"NGL","noGo",1,"neutral","Avoid",270,"3",19
"271","CTLB0360",11,12,9,10,11,2540,965,0,0,"no_press",0,"NGL","noGo",1,"neutral","Avoid",271,"3",20
"272","CTLB0360",10,12,9,10,11,2761,674,874,0,"press",1,"NGW","noGo",0,"neutral","Win",272,"3",16
"273","CTLB0360",10,12,9,10,11,2344,882,782,1,"press",1,"NGW","noGo",0,"win","Win",273,"3",17
"274","CTLB0360",12,12,9,10,11,1963,817,554,1,"press",1,"GW","Go",1,"win","Win",274,"3",18
"275","CTLB0360",12,12,9,10,11,2503,518,568,1,"press",1,"GW","Go",1,"win","Win",275,"3",19
"276","CTLB0360",9,12,9,10,11,1423,990,592,0,"press",1,"GAL","Go",1,"neutral","Avoid",276,"3",20
"277","CTLB0360",9,12,9,10,11,2330,787,797,0,"press",1,"GAL","Go",1,"neutral","Avoid",277,"3",21
"278","CTLB0360",11,12,9,10,11,1655,780,899,0,"press",1,"NGL","noGo",0,"neutral","Avoid",278,"3",21
"279","CTLB0360",9,12,9,10,11,1848,643,509,0,"press",1,"GAL","Go",1,"neutral","Avoid",279,"3",22
"280","CTLB0360",9,12,9,10,11,2372,543,1209,0,"press",1,"GAL","Go",1,"neutral","Avoid",280,"3",23
"281","CTLB0360",12,12,9,10,11,1267,925,885,1,"press",1,"GW","Go",1,"win","Win",281,"3",20
"282","CTLB0360",9,12,9,10,11,1000,712,1156,-1,"press",1,"GAL","Go",1,"lose","Avoid",282,"3",24
"283","CTLB0360",10,12,9,10,11,2126,661,1227,0,"press",1,"NGW","noGo",0,"neutral","Win",283,"3",18
"284","CTLB0360",12,12,9,10,11,2579,977,1045,1,"press",1,"GW","Go",1,"win","Win",284,"3",21
"285","CTLB0360",11,12,9,10,11,2131,754,668,-1,"press",1,"NGL","noGo",0,"lose","Avoid",285,"3",22
"286","CTLB0360",12,12,9,10,11,1249,882,847,1,"press",1,"GW","Go",1,"win","Win",286,"3",22
"287","CTLB0360",12,12,9,10,11,2451,762,582,1,"press",1,"GW","Go",1,"win","Win",287,"3",23
"288","CTLB0360",10,12,9,10,11,1885,992,820,0,"press",1,"NGW","noGo",0,"neutral","Win",288,"3",19
"289","CTLB0360",10,12,9,10,11,1000,595,628,1,"press",1,"NGW","noGo",0,"win","Win",289,"3",20
"290","CTLB0360",11,12,9,10,11,2234,944,0,0,"no_press",0,"NGL","noGo",1,"neutral","Avoid",290,"3",23
"291","CTLB0360",11,12,9,10,11,2538,725,0,0,"no_press",0,"NGL","noGo",1,"neutral","Avoid",291,"3",24
"292","CTLB0360",10,12,9,10,11,1779,762,1027,1,"press",1,"NGW","noGo",0,"win","Win",292,"3",21
"293","CTLB0360",9,12,9,10,11,1615,961,0,-1,"no_press",0,"GAL","Go",0,"lose","Avoid",293,"3",25
"294","CTLB0360",10,12,9,10,11,2467,794,544,0,"press",1,"NGW","noGo",0,"neutral","Win",294,"3",22
"295","CTLB0360",12,12,9,10,11,1826,877,553,1,"press",1,"GW","Go",1,"win","Win",295,"3",24
"296","CTLB0360",11,12,9,10,11,2448,827,953,-1,"press",1,"NGL","noGo",0,"lose","Avoid",296,"3",25
"297","CTLB0360",10,12,9,10,11,2822,629,521,1,"press",1,"NGW","noGo",0,"win","Win",297,"3",23
"298","CTLB0360",10,12,9,10,11,1546,945,534,0,"press",1,"NGW","noGo",0,"neutral","Win",298,"3",24
"299","CTLB0360",12,12,9,10,11,2692,654,419,0,"press",1,"GW","Go",1,"neutral","Win",299,"3",25
"300","CTLB0360",10,12,9,10,11,2873,562,567,0,"press",1,"NGW","noGo",0,"neutral","Win",300,"3",25
"301","CTLB0360",16,16,13,14,15,1824,999,978,1,"press",1,"GW","Go",1,"win","Win",301,"4",1
"302","CTLB0360",16,16,13,14,15,1761,557,583,1,"press",1,"GW","Go",1,"win","Win",302,"4",2
"303","CTLB0360",13,16,13,14,15,1861,690,0,-1,"no_press",0,"GAL","Go",0,"lose","Avoid",303,"4",1
"304","CTLB0360",13,16,13,14,15,1189,549,0,-1,"no_press",0,"GAL","Go",0,"lose","Avoid",304,"4",2
"305","CTLB0360",16,16,13,14,15,1763,903,1017,0,"press",1,"GW","Go",1,"neutral","Win",305,"4",3
"306","CTLB0360",15,16,13,14,15,1191,676,1328,-1,"press",1,"NGL","noGo",0,"lose","Avoid",306,"4",1
"307","CTLB0360",14,16,13,14,15,1463,888,1024,0,"press",1,"NGW","noGo",0,"neutral","Win",307,"4",1
"308","CTLB0360",14,16,13,14,15,2817,727,1278,1,"press",1,"NGW","noGo",0,"win","Win",308,"4",2
"309","CTLB0360",13,16,13,14,15,1544,925,0,-1,"no_press",0,"GAL","Go",0,"lose","Avoid",309,"4",3
"310","CTLB0360",16,16,13,14,15,1509,504,906,1,"press",1,"GW","Go",1,"win","Win",310,"4",4
"311","CTLB0360",16,16,13,14,15,2241,882,888,1,"press",1,"GW","Go",1,"win","Win",311,"4",5
"312","CTLB0360",13,16,13,14,15,2206,875,0,-1,"no_press",0,"GAL","Go",0,"lose","Avoid",312,"4",4
"313","CTLB0360",14,16,13,14,15,1941,949,1078,0,"press",1,"NGW","noGo",0,"neutral","Win",313,"4",3
"314","CTLB0360",16,16,13,14,15,2145,565,809,0,"press",1,"GW","Go",1,"neutral","Win",314,"4",6
"315","CTLB0360",15,16,13,14,15,2323,980,0,0,"no_press",0,"NGL","noGo",1,"neutral","Avoid",315,"4",2
"316","CTLB0360",16,16,13,14,15,1922,894,597,1,"press",1,"GW","Go",1,"win","Win",316,"4",7
"317","CTLB0360",16,16,13,14,15,2299,947,0,0,"no_press",0,"GW","Go",0,"neutral","Win",317,"4",8
"318","CTLB0360",14,16,13,14,15,2107,650,799,0,"press",1,"NGW","noGo",0,"neutral","Win",318,"4",4
"319","CTLB0360",15,16,13,14,15,1591,739,772,-1,"press",1,"NGL","noGo",0,"lose","Avoid",319,"4",3
"320","CTLB0360",15,16,13,14,15,2864,945,0,0,"no_press",0,"NGL","noGo",1,"neutral","Avoid",320,"4",4
"321","CTLB0360",14,16,13,14,15,2014,593,475,0,"press",1,"NGW","noGo",0,"neutral","Win",321,"4",5
"322","CTLB0360",15,16,13,14,15,2272,611,0,-1,"no_press",0,"NGL","noGo",1,"lose","Avoid",322,"4",5
"323","CTLB0360",14,16,13,14,15,1318,655,1222,0,"press",1,"NGW","noGo",0,"neutral","Win",323,"4",6
"324","CTLB0360",14,16,13,14,15,2645,735,0,1,"no_press",0,"NGW","noGo",1,"win","Win",324,"4",7
"325","CTLB0360",14,16,13,14,15,2381,877,0,1,"no_press",0,"NGW","noGo",1,"win","Win",325,"4",8
"326","CTLB0360",16,16,13,14,15,2285,839,842,1,"press",1,"GW","Go",1,"win","Win",326,"4",9
"327","CTLB0360",15,16,13,14,15,2493,924,0,0,"no_press",0,"NGL","noGo",1,"neutral","Avoid",327,"4",6
"328","CTLB0360",15,16,13,14,15,1346,600,1487,-1,"press",1,"NGL","noGo",0,"lose","Avoid",328,"4",7
"329","CTLB0360",13,16,13,14,15,2086,777,0,-1,"no_press",0,"GAL","Go",0,"lose","Avoid",329,"4",5
"330","CTLB0360",16,16,13,14,15,1229,956,698,1,"press",1,"GW","Go",1,"win","Win",330,"4",10
"331","CTLB0360",13,16,13,14,15,2125,878,0,-1,"no_press",0,"GAL","Go",0,"lose","Avoid",331,"4",6
"332","CTLB0360",15,16,13,14,15,2226,591,0,-1,"no_press",0,"NGL","noGo",1,"lose","Avoid",332,"4",8
"333","CTLB0360",14,16,13,14,15,1368,926,743,0,"press",1,"NGW","noGo",0,"neutral","Win",333,"4",9
"334","CTLB0360",14,16,13,14,15,1885,713,0,1,"no_press",0,"NGW","noGo",1,"win","Win",334,"4",10
"335","CTLB0360",13,16,13,14,15,1743,890,0,0,"no_press",0,"GAL","Go",0,"neutral","Avoid",335,"4",7
"336","CTLB0360",14,16,13,14,15,2266,972,0,1,"no_press",0,"NGW","noGo",1,"win","Win",336,"4",11
"337","CTLB0360",15,16,13,14,15,1552,817,0,0,"no_press",0,"NGL","noGo",1,"neutral","Avoid",337,"4",9
"338","CTLB0360",15,16,13,14,15,2026,1000,1011,-1,"press",1,"NGL","noGo",0,"lose","Avoid",338,"4",10
"339","CTLB0360",15,16,13,14,15,2131,1000,0,0,"no_press",0,"NGL","noGo",1,"neutral","Avoid",339,"4",11
"340","CTLB0360",13,16,13,14,15,1433,998,1464,0,"press",1,"GAL","Go",1,"neutral","Avoid",340,"4",8
"341","CTLB0360",14,16,13,14,15,1576,802,814,0,"press",1,"NGW","noGo",0,"neutral","Win",341,"4",12
"342","CTLB0360",13,16,13,14,15,1965,852,825,-1,"press",1,"GAL","Go",1,"lose","Avoid",342,"4",9
"343","CTLB0360",13,16,13,14,15,1504,980,1348,0,"press",1,"GAL","Go",1,"neutral","Avoid",343,"4",10
"344","CTLB0360",15,16,13,14,15,2464,680,0,-1,"no_press",0,"NGL","noGo",1,"lose","Avoid",344,"4",12
"345","CTLB0360",16,16,13,14,15,1951,802,544,1,"press",1,"GW","Go",1,"win","Win",345,"4",11
"346","CTLB0360",15,16,13,14,15,2066,764,1177,-1,"press",1,"NGL","noGo",0,"lose","Avoid",346,"4",13
"347","CTLB0360",16,16,13,14,15,1000,715,706,1,"press",1,"GW","Go",1,"win","Win",347,"4",12
"348","CTLB0360",14,16,13,14,15,1485,712,1147,0,"press",1,"NGW","noGo",0,"neutral","Win",348,"4",13
"349","CTLB0360",15,16,13,14,15,2018,602,0,0,"no_press",0,"NGL","noGo",1,"neutral","Avoid",349,"4",14
"350","CTLB0360",13,16,13,14,15,1715,914,761,0,"press",1,"GAL","Go",1,"neutral","Avoid",350,"4",11
"351","CTLB0360",13,16,13,14,15,1888,920,437,0,"press",1,"GAL","Go",1,"neutral","Avoid",351,"4",12
"352","CTLB0360",15,16,13,14,15,1187,670,1183,0,"press",1,"NGL","noGo",0,"neutral","Avoid",352,"4",15
"353","CTLB0360",13,16,13,14,15,1238,825,659,0,"press",1,"GAL","Go",1,"neutral","Avoid",353,"4",13
"354","CTLB0360",15,16,13,14,15,1842,909,0,0,"no_press",0,"NGL","noGo",1,"neutral","Avoid",354,"4",16
"355","CTLB0360",15,16,13,14,15,1842,657,1134,-1,"press",1,"NGL","noGo",0,"lose","Avoid",355,"4",17
"356","CTLB0360",13,16,13,14,15,1166,541,0,-1,"no_press",0,"GAL","Go",0,"lose","Avoid",356,"4",14
"357","CTLB0360",14,16,13,14,15,2031,505,1181,0,"press",1,"NGW","noGo",0,"neutral","Win",357,"4",14
"358","CTLB0360",14,16,13,14,15,1990,645,0,0,"no_press",0,"NGW","noGo",1,"neutral","Win",358,"4",15
"359","CTLB0360",14,16,13,14,15,1452,590,804,0,"press",1,"NGW","noGo",0,"neutral","Win",359,"4",16
"360","CTLB0360",13,16,13,14,15,2125,758,833,0,"press",1,"GAL","Go",1,"neutral","Avoid",360,"4",15
"361","CTLB0360",16,16,13,14,15,1879,925,738,0,"press",1,"GW","Go",1,"neutral","Win",361,"4",13
"362","CTLB0360",16,16,13,14,15,2571,980,656,1,"press",1,"GW","Go",1,"win","Win",362,"4",14
"363","CTLB0360",14,16,13,14,15,1000,554,0,0,"no_press",0,"NGW","noGo",1,"neutral","Win",363,"4",17
"364","CTLB0360",14,16,13,14,15,2700,915,0,1,"no_press",0,"NGW","noGo",1,"win","Win",364,"4",18
"365","CTLB0360",14,16,13,14,15,2228,867,947,1,"press",1,"NGW","noGo",0,"win","Win",365,"4",19
"366","CTLB0360",14,16,13,14,15,2224,736,805,0,"press",1,"NGW","noGo",0,"neutral","Win",366,"4",20
"367","CTLB0360",13,16,13,14,15,3344,808,702,0,"press",1,"GAL","Go",1,"neutral","Avoid",367,"4",16
"368","CTLB0360",16,16,13,14,15,1608,646,884,1,"press",1,"GW","Go",1,"win","Win",368,"4",15
"369","CTLB0360",13,16,13,14,15,1444,972,651,-1,"press",1,"GAL","Go",1,"lose","Avoid",369,"4",17
"370","CTLB0360",16,16,13,14,15,1403,700,825,1,"press",1,"GW","Go",1,"win","Win",370,"4",16
"371","CTLB0360",13,16,13,14,15,1666,845,1052,0,"press",1,"GAL","Go",1,"neutral","Avoid",371,"4",18
"372","CTLB0360",13,16,13,14,15,2274,914,1149,-1,"press",1,"GAL","Go",1,"lose","Avoid",372,"4",19
"373","CTLB0360",16,16,13,14,15,1842,953,1152,1,"press",1,"GW","Go",1,"win","Win",373,"4",17
"374","CTLB0360",16,16,13,14,15,1795,696,0,0,"no_press",0,"GW","Go",0,"neutral","Win",374,"4",18
"375","CTLB0360",16,16,13,14,15,1717,934,845,0,"press",1,"GW","Go",1,"neutral","Win",375,"4",19
"376","CTLB0360",16,16,13,14,15,1729,775,645,1,"press",1,"GW","Go",1,"win","Win",376,"4",20
"377","CTLB0360",13,16,13,14,15,1495,607,914,0,"press",1,"GAL","Go",1,"neutral","Avoid",377,"4",20
"378","CTLB0360",13,16,13,14,15,1635,518,748,-1,"press",1,"GAL","Go",1,"lose","Avoid",378,"4",21
"379","CTLB0360",14,16,13,14,15,2776,642,880,0,"press",1,"NGW","noGo",0,"neutral","Win",379,"4",21
"380","CTLB0360",16,16,13,14,15,1753,665,721,1,"press",1,"GW","Go",1,"win","Win",380,"4",21
"381","CTLB0360",15,16,13,14,15,1198,859,0,0,"no_press",0,"NGL","noGo",1,"neutral","Avoid",381,"4",18
"382","CTLB0360",16,16,13,14,15,2176,721,902,1,"press",1,"GW","Go",1,"win","Win",382,"4",22
"383","CTLB0360",15,16,13,14,15,1504,586,636,-1,"press",1,"NGL","noGo",0,"lose","Avoid",383,"4",19
"384","CTLB0360",14,16,13,14,15,2257,799,1163,0,"press",1,"NGW","noGo",0,"neutral","Win",384,"4",22
"385","CTLB0360",15,16,13,14,15,2601,920,410,0,"press",1,"NGL","noGo",0,"neutral","Avoid",385,"4",20
"386","CTLB0360",13,16,13,14,15,1936,698,1271,0,"press",1,"GAL","Go",1,"neutral","Avoid",386,"4",22
"387","CTLB0360",13,16,13,14,15,1921,900,0,-1,"no_press",0,"GAL","Go",0,"lose","Avoid",387,"4",23
"388","CTLB0360",14,16,13,14,15,2018,884,601,0,"press",1,"NGW","noGo",0,"neutral","Win",388,"4",23
"389","CTLB0360",15,16,13,14,15,1965,565,353,-1,"press",1,"NGL","noGo",0,"lose","Avoid",389,"4",21
"390","CTLB0360",14,16,13,14,15,2650,561,0,1,"no_press",0,"NGW","noGo",1,"win","Win",390,"4",24
"391","CTLB0360",16,16,13,14,15,1729,890,811,1,"press",1,"GW","Go",1,"win","Win",391,"4",23
"392","CTLB0360",14,16,13,14,15,2129,725,977,1,"press",1,"NGW","noGo",0,"win","Win",392,"4",25
"393","CTLB0360",16,16,13,14,15,1861,836,0,0,"no_press",0,"GW","Go",0,"neutral","Win",393,"4",24
"394","CTLB0360",15,16,13,14,15,1509,634,409,-1,"press",1,"NGL","noGo",0,"lose","Avoid",394,"4",22
"395","CTLB0360",15,16,13,14,15,2695,568,592,-1,"press",1,"NGL","noGo",0,"lose","Avoid",395,"4",23
"396","CTLB0360",13,16,13,14,15,1715,865,0,-1,"no_press",0,"GAL","Go",0,"lose","Avoid",396,"4",24
"397","CTLB0360",13,16,13,14,15,2298,887,654,0,"press",1,"GAL","Go",1,"neutral","Avoid",397,"4",25
"398","CTLB0360",15,16,13,14,15,1430,844,1287,-1,"press",1,"NGL","noGo",0,"lose","Avoid",398,"4",24
"399","CTLB0360",15,16,13,14,15,1847,796,1175,-1,"press",1,"NGL","noGo",0,"lose","Avoid",399,"4",25
"400","CTLB0360",16,16,13,14,15,1773,509,1288,0,"press",1,"GW","Go",1,"neutral","Win",400,"4",25
"401","DBGE0324",1,2,3,4,1,2650,773,587,-1,"press",1,"NGL","noGo",0,"lose","Avoid",1,"1",1
"402","DBGE0324",3,2,3,4,1,1485,986,1415,0,"press",1,"GAL","Go",1,"neutral","Avoid",2,"1",1
"403","DBGE0324",2,2,3,4,1,1588,864,884,1,"press",1,"GW","Go",1,"win","Win",3,"1",1
"404","DBGE0324",4,2,3,4,1,2794,548,0,1,"no_press",0,"NGW","noGo",1,"win","Win",4,"1",1
"405","DBGE0324",3,2,3,4,1,3515,879,676,-1,"press",1,"GAL","Go",1,"lose","Avoid",5,"1",2
"406","DBGE0324",4,2,3,4,1,3445,951,0,1,"no_press",0,"NGW","noGo",1,"win","Win",6,"1",2
"407","DBGE0324",2,2,3,4,1,1847,771,1136,0,"press",1,"GW","Go",1,"neutral","Win",7,"1",2
"408","DBGE0324",1,2,3,4,1,2080,574,0,0,"no_press",0,"NGL","noGo",1,"neutral","Avoid",8,"1",2
"409","DBGE0324",4,2,3,4,1,1932,923,0,1,"no_press",0,"NGW","noGo",1,"win","Win",9,"1",3
"410","DBGE0324",4,2,3,4,1,1509,955,0,1,"no_press",0,"NGW","noGo",1,"win","Win",10,"1",4
"411","DBGE0324",4,2,3,4,1,2464,816,0,0,"no_press",0,"NGW","noGo",1,"neutral","Win",11,"1",5
"412","DBGE0324",1,2,3,4,1,2018,678,0,0,"no_press",0,"NGL","noGo",1,"neutral","Avoid",12,"1",3
"413","DBGE0324",1,2,3,4,1,2506,531,0,0,"no_press",0,"NGL","noGo",1,"neutral","Avoid",13,"1",4
"414","DBGE0324",3,2,3,4,1,3128,734,1363,0,"press",1,"GAL","Go",1,"neutral","Avoid",14,"1",3
"415","DBGE0324",4,2,3,4,1,2615,721,0,0,"no_press",0,"NGW","noGo",1,"neutral","Win",15,"1",6
"416","DBGE0324",1,2,3,4,1,1847,552,0,0,"no_press",0,"NGL","noGo",1,"neutral","Avoid",16,"1",5
"417","DBGE0324",4,2,3,4,1,1266,650,0,1,"no_press",0,"NGW","noGo",1,"win","Win",17,"1",7
"418","DBGE0324",2,2,3,4,1,1879,762,934,1,"press",1,"GW","Go",1,"win","Win",18,"1",3
"419","DBGE0324",3,2,3,4,1,1467,619,0,-1,"no_press",0,"GAL","Go",0,"lose","Avoid",19,"1",4
"420","DBGE0324",1,2,3,4,1,1368,533,0,0,"no_press",0,"NGL","noGo",1,"neutral","Avoid",20,"1",6
"421","DBGE0324",2,2,3,4,1,1196,981,713,0,"press",1,"GW","Go",1,"neutral","Win",21,"1",4
"422","DBGE0324",2,2,3,4,1,2785,846,704,1,"press",1,"GW","Go",1,"win","Win",22,"1",5
"423","DBGE0324",3,2,3,4,1,2169,834,569,-1,"press",1,"GAL","Go",1,"lose","Avoid",23,"1",5
"424","DBGE0324",1,2,3,4,1,1967,509,0,0,"no_press",0,"NGL","noGo",1,"neutral","Avoid",24,"1",7
"425","DBGE0324",4,2,3,4,1,1939,796,0,0,"no_press",0,"NGW","noGo",1,"neutral","Win",25,"1",8
"426","DBGE0324",4,2,3,4,1,1503,699,0,1,"no_press",0,"NGW","noGo",1,"win","Win",26,"1",9
"427","DBGE0324",1,2,3,4,1,1189,939,0,-1,"no_press",0,"NGL","noGo",1,"lose","Avoid",27,"1",8
"428","DBGE0324",2,2,3,4,1,1494,736,1486,1,"press",1,"GW","Go",1,"win","Win",28,"1",6
"429","DBGE0324",3,2,3,4,1,2066,681,813,-1,"press",1,"GAL","Go",1,"lose","Avoid",29,"1",6
"430","DBGE0324",1,2,3,4,1,1965,870,0,0,"no_press",0,"NGL","noGo",1,"neutral","Avoid",30,"1",9
"431","DBGE0324",1,2,3,4,1,2298,995,0,0,"no_press",0,"NGL","noGo",1,"neutral","Avoid",31,"1",10
"432","DBGE0324",3,2,3,4,1,1504,746,0,-1,"no_press",0,"GAL","Go",0,"lose","Avoid",32,"1",7
"433","DBGE0324",3,2,3,4,1,1693,560,749,0,"press",1,"GAL","Go",1,"neutral","Avoid",33,"1",8
"434","DBGE0324",1,2,3,4,1,1329,754,0,0,"no_press",0,"NGL","noGo",1,"neutral","Avoid",34,"1",11
"435","DBGE0324",3,2,3,4,1,2493,586,773,0,"press",1,"GAL","Go",1,"neutral","Avoid",35,"1",9
"436","DBGE0324",2,2,3,4,1,1992,544,512,0,"press",1,"GW","Go",1,"neutral","Win",36,"1",7
"437","DBGE0324",3,2,3,4,1,2018,952,525,0,"press",1,"GAL","Go",1,"neutral","Avoid",37,"1",10
"438","DBGE0324",2,2,3,4,1,2980,634,480,1,"press",1,"GW","Go",1,"win","Win",38,"1",8
"439","DBGE0324",3,2,3,4,1,2776,640,536,0,"press",1,"GAL","Go",1,"neutral","Avoid",39,"1",11
"440","DBGE0324",2,2,3,4,1,2034,766,480,1,"press",1,"GW","Go",1,"win","Win",40,"1",9
"441","DBGE0324",3,2,3,4,1,1788,540,516,0,"press",1,"GAL","Go",1,"neutral","Avoid",41,"1",12
"442","DBGE0324",3,2,3,4,1,2001,785,476,0,"press",1,"GAL","Go",1,"neutral","Avoid",42,"1",13
"443","DBGE0324",2,2,3,4,1,2198,695,550,1,"press",1,"GW","Go",1,"win","Win",43,"1",10
"444","DBGE0324",1,2,3,4,1,1678,661,0,0,"no_press",0,"NGL","noGo",1,"neutral","Avoid",44,"1",12
"445","DBGE0324",1,2,3,4,1,2359,651,0,0,"no_press",0,"NGL","noGo",1,"neutral","Avoid",45,"1",13
"446","DBGE0324",4,2,3,4,1,2402,679,0,1,"no_press",0,"NGW","noGo",1,"win","Win",46,"1",10
"447","DBGE0324",1,2,3,4,1,1608,662,0,-1,"no_press",0,"NGL","noGo",1,"lose","Avoid",47,"1",14
"448","DBGE0324",4,2,3,4,1,2044,975,0,1,"no_press",0,"NGW","noGo",1,"win","Win",48,"1",11
"449","DBGE0324",3,2,3,4,1,3344,529,605,0,"press",1,"GAL","Go",1,"neutral","Avoid",49,"1",14
"450","DBGE0324",2,2,3,4,1,1182,719,1084,1,"press",1,"GW","Go",1,"win","Win",50,"1",11
"451","DBGE0324",3,2,3,4,1,2019,550,575,0,"press",1,"GAL","Go",1,"neutral","Avoid",51,"1",15
"452","DBGE0324",1,2,3,4,1,1204,813,0,-1,"no_press",0,"NGL","noGo",1,"lose","Avoid",52,"1",15
"453","DBGE0324",1,2,3,4,1,2097,572,0,0,"no_press",0,"NGL","noGo",1,"neutral","Avoid",53,"1",16
"454","DBGE0324",4,2,3,4,1,2029,609,0,1,"no_press",0,"NGW","noGo",1,"win","Win",54,"1",12
"455","DBGE0324",4,2,3,4,1,1810,952,0,0,"no_press",0,"NGW","noGo",1,"neutral","Win",55,"1",13
"456","DBGE0324",3,2,3,4,1,2323,928,747,0,"press",1,"GAL","Go",1,"neutral","Avoid",56,"1",16
"457","DBGE0324",3,2,3,4,1,1885,585,610,0,"press",1,"GAL","Go",1,"neutral","Avoid",57,"1",17
"458","DBGE0324",4,2,3,4,1,2700,865,0,1,"no_press",0,"NGW","noGo",1,"win","Win",58,"1",14
"459","DBGE0324",2,2,3,4,1,1743,965,666,1,"press",1,"GW","Go",1,"win","Win",59,"1",12
"460","DBGE0324",2,2,3,4,1,2467,641,607,1,"press",1,"GW","Go",1,"win","Win",60,"1",13
"461","DBGE0324",1,2,3,4,1,2615,882,0,0,"no_press",0,"NGL","noGo",1,"neutral","Avoid",61,"1",17
"462","DBGE0324",3,2,3,4,1,1495,822,942,0,"press",1,"GAL","Go",1,"neutral","Avoid",62,"1",18
"463","DBGE0324",4,2,3,4,1,2253,947,0,1,"no_press",0,"NGW","noGo",1,"win","Win",63,"1",15
"464","DBGE0324",3,2,3,4,1,1709,921,983,0,"press",1,"GAL","Go",1,"neutral","Avoid",64,"1",19
"465","DBGE0324",1,2,3,4,1,1547,909,0,0,"no_press",0,"NGL","noGo",1,"neutral","Avoid",65,"1",18
"466","DBGE0324",2,2,3,4,1,2853,712,543,1,"press",1,"GW","Go",1,"win","Win",66,"1",14
"467","DBGE0324",1,2,3,4,1,1951,718,0,-1,"no_press",0,"NGL","noGo",1,"lose","Avoid",67,"1",19
"468","DBGE0324",4,2,3,4,1,3560,926,0,1,"no_press",0,"NGW","noGo",1,"win","Win",68,"1",16
"469","DBGE0324",1,2,3,4,1,1463,622,0,0,"no_press",0,"NGL","noGo",1,"neutral","Avoid",69,"1",20
"470","DBGE0324",2,2,3,4,1,1403,663,573,1,"press",1,"GW","Go",1,"win","Win",70,"1",15
"471","DBGE0324",4,2,3,4,1,2336,508,0,1,"no_press",0,"NGW","noGo",1,"win","Win",71,"1",17
"472","DBGE0324",3,2,3,4,1,2887,701,616,0,"press",1,"GAL","Go",1,"neutral","Avoid",72,"1",20
"473","DBGE0324",2,2,3,4,1,2234,626,702,1,"press",1,"GW","Go",1,"win","Win",73,"1",16
"474","DBGE0324",4,2,3,4,1,2241,992,0,1,"no_press",0,"NGW","noGo",1,"win","Win",74,"1",18
"475","DBGE0324",3,2,3,4,1,1943,939,564,-1,"press",1,"GAL","Go",1,"lose","Avoid",75,"1",21
"476","DBGE0324",3,2,3,4,1,1479,605,618,0,"press",1,"GAL","Go",1,"neutral","Avoid",76,"1",22
"477","DBGE0324",4,2,3,4,1,2873,564,0,1,"no_press",0,"NGW","noGo",1,"win","Win",77,"1",19
"478","DBGE0324",4,2,3,4,1,2455,944,0,1,"no_press",0,"NGW","noGo",1,"win","Win",78,"1",20
"479","DBGE0324",1,2,3,4,1,2335,756,0,0,"no_press",0,"NGL","noGo",1,"neutral","Avoid",79,"1",21
"480","DBGE0324",2,2,3,4,1,1000,829,601,1,"press",1,"GW","Go",1,"win","Win",80,"1",17
"481","DBGE0324",2,2,3,4,1,1932,791,612,1,"press",1,"GW","Go",1,"win","Win",81,"1",18
"482","DBGE0324",2,2,3,4,1,1187,945,568,0,"press",1,"GW","Go",1,"neutral","Win",82,"1",19
"483","DBGE0324",3,2,3,4,1,1888,922,814,0,"press",1,"GAL","Go",1,"neutral","Avoid",83,"1",23
"484","DBGE0324",4,2,3,4,1,3016,624,0,1,"no_press",0,"NGW","noGo",1,"win","Win",84,"1",21
"485","DBGE0324",2,2,3,4,1,1000,682,806,1,"press",1,"GW","Go",1,"win","Win",85,"1",20
"486","DBGE0324",4,2,3,4,1,1693,754,0,1,"no_press",0,"NGW","noGo",1,"win","Win",86,"1",22
"487","DBGE0324",1,2,3,4,1,1524,944,0,0,"no_press",0,"NGL","noGo",1,"neutral","Avoid",87,"1",22
"488","DBGE0324",1,2,3,4,1,2538,524,0,0,"no_press",0,"NGL","noGo",1,"neutral","Avoid",88,"1",23
"489","DBGE0324",3,2,3,4,1,2086,654,745,-1,"press",1,"GAL","Go",1,"lose","Avoid",89,"1",24
"490","DBGE0324",2,2,3,4,1,2306,756,592,1,"press",1,"GW","Go",1,"win","Win",90,"1",21
"491","DBGE0324",2,2,3,4,1,2513,830,605,1,"press",1,"GW","Go",1,"win","Win",91,"1",22
"492","DBGE0324",4,2,3,4,1,2184,854,0,1,"no_press",0,"NGW","noGo",1,"win","Win",92,"1",23
"493","DBGE0324",1,2,3,4,1,2319,818,0,0,"no_press",0,"NGL","noGo",1,"neutral","Avoid",93,"1",24
"494","DBGE0324",3,2,3,4,1,2369,743,694,0,"press",1,"GAL","Go",1,"neutral","Avoid",94,"1",25
"495","DBGE0324",2,2,3,4,1,2367,585,560,1,"press",1,"GW","Go",1,"win","Win",95,"1",23
"496","DBGE0324",4,2,3,4,1,2145,570,0,0,"no_press",0,"NGW","noGo",1,"neutral","Win",96,"1",24
"497","DBGE0324",2,2,3,4,1,2344,972,480,1,"press",1,"GW","Go",1,"win","Win",97,"1",24
"498","DBGE0324",2,2,3,4,1,2014,557,530,0,"press",1,"GW","Go",1,"neutral","Win",98,"1",25
"499","DBGE0324",4,2,3,4,1,2080,922,0,1,"no_press",0,"NGW","noGo",1,"win","Win",99,"1",25
"500","DBGE0324",1,2,3,4,1,2041,768,0,-1,"no_press",0,"NGL","noGo",1,"lose","Avoid",100,"1",25
"501","DBGE0324",5,6,5,8,7,2761,749,441,0,"press",1,"GAL","Go",1,"neutral","Avoid",101,"2",1
"502","DBGE0324",8,6,5,8,7,2040,769,924,0,"press",1,"NGW","noGo",0,"neutral","Win",102,"2",1
"503","DBGE0324",7,6,5,8,7,2226,993,637,0,"press",1,"NGL","noGo",0,"neutral","Avoid",103,"2",1
"504","DBGE0324",7,6,5,8,7,1678,665,743,-1,"press",1,"NGL","noGo",0,"lose","Avoid",104,"2",2
"505","DBGE0324",6,6,5,8,7,1964,660,957,1,"press",1,"GW","Go",1,"win","Win",105,"2",1
"506","DBGE0324",5,6,5,8,7,1536,624,778,-1,"press",1,"GAL","Go",1,"lose","Avoid",106,"2",2
"507","DBGE0324",8,6,5,8,7,1578,968,0,1,"no_press",0,"NGW","noGo",1,"win","Win",107,"2",2
"508","DBGE0324",5,6,5,8,7,1771,514,0,-1,"no_press",0,"GAL","Go",0,"lose","Avoid",108,"2",3
"509","DBGE0324",7,6,5,8,7,1289,804,0,0,"no_press",0,"NGL","noGo",1,"neutral","Avoid",109,"2",3
"510","DBGE0324",5,6,5,8,7,1407,953,0,0,"no_press",0,"GAL","Go",0,"neutral","Avoid",110,"2",4
"511","DBGE0324",6,6,5,8,7,2588,957,657,1,"press",1,"GW","Go",1,"win","Win",111,"2",2
"512","DBGE0324",7,6,5,8,7,2907,965,0,0,"no_press",0,"NGL","noGo",1,"neutral","Avoid",112,"2",4
"513","DBGE0324",6,6,5,8,7,1908,645,474,1,"press",1,"GW","Go",1,"win","Win",113,"2",3
"514","DBGE0324",5,6,5,8,7,2184,746,0,-1,"no_press",0,"GAL","Go",0,"lose","Avoid",114,"2",5
"515","DBGE0324",7,6,5,8,7,2836,746,0,0,"no_press",0,"NGL","noGo",1,"neutral","Avoid",115,"2",5
"516","DBGE0324",6,6,5,8,7,2087,660,735,1,"press",1,"GW","Go",1,"win","Win",116,"2",4
"517","DBGE0324",8,6,5,8,7,2464,854,0,0,"no_press",0,"NGW","noGo",1,"neutral","Win",117,"2",3
"518","DBGE0324",8,6,5,8,7,1936,536,0,1,"no_press",0,"NGW","noGo",1,"win","Win",118,"2",4
"519","DBGE0324",5,6,5,8,7,3876,514,0,-1,"no_press",0,"GAL","Go",0,"lose","Avoid",119,"2",6
"520","DBGE0324",6,6,5,8,7,1456,694,1020,0,"press",1,"GW","Go",1,"neutral","Win",120,"2",5
"521","DBGE0324",7,6,5,8,7,1453,690,0,0,"no_press",0,"NGL","noGo",1,"neutral","Avoid",121,"2",6
"522","DBGE0324",5,6,5,8,7,1288,561,0,-1,"no_press",0,"GAL","Go",0,"lose","Avoid",122,"2",7
"523","DBGE0324",8,6,5,8,7,1938,779,0,1,"no_press",0,"NGW","noGo",1,"win","Win",123,"2",5
"524","DBGE0324",5,6,5,8,7,2000,859,0,-1,"no_press",0,"GAL","Go",0,"lose","Avoid",124,"2",8
"525","DBGE0324",5,6,5,8,7,1787,700,815,0,"press",1,"GAL","Go",1,"neutral","Avoid",125,"2",9
"526","DBGE0324",8,6,5,8,7,2164,997,0,0,"no_press",0,"NGW","noGo",1,"neutral","Win",126,"2",6
"527","DBGE0324",8,6,5,8,7,1779,931,0,1,"no_press",0,"NGW","noGo",1,"win","Win",127,"2",7
"528","DBGE0324",7,6,5,8,7,1509,870,0,0,"no_press",0,"NGL","noGo",1,"neutral","Avoid",128,"2",7
"529","DBGE0324",5,6,5,8,7,2828,623,1033,0,"press",1,"GAL","Go",1,"neutral","Avoid",129,"2",10
"530","DBGE0324",8,6,5,8,7,1546,763,0,1,"no_press",0,"NGW","noGo",1,"win","Win",130,"2",8
"531","DBGE0324",8,6,5,8,7,2274,859,0,1,"no_press",0,"NGW","noGo",1,"win","Win",131,"2",9
"532","DBGE0324",8,6,5,8,7,2262,909,0,1,"no_press",0,"NGW","noGo",1,"win","Win",132,"2",10
"533","DBGE0324",5,6,5,8,7,1773,626,998,0,"press",1,"GAL","Go",1,"neutral","Avoid",133,"2",11
"534","DBGE0324",8,6,5,8,7,1759,613,0,1,"no_press",0,"NGW","noGo",1,"win","Win",134,"2",11
"535","DBGE0324",8,6,5,8,7,2645,715,0,1,"no_press",0,"NGW","noGo",1,"win","Win",135,"2",12
"536","DBGE0324",5,6,5,8,7,1806,820,734,0,"press",1,"GAL","Go",1,"neutral","Avoid",136,"2",12
"537","DBGE0324",5,6,5,8,7,2254,938,760,0,"press",1,"GAL","Go",1,"neutral","Avoid",137,"2",13
"538","DBGE0324",5,6,5,8,7,2031,574,600,0,"press",1,"GAL","Go",1,"neutral","Avoid",138,"2",14
"539","DBGE0324",6,6,5,8,7,1479,984,736,1,"press",1,"GW","Go",1,"win","Win",139,"2",6
"540","DBGE0324",7,6,5,8,7,1959,673,0,-1,"no_press",0,"NGL","noGo",1,"lose","Avoid",140,"2",8
"541","DBGE0324",8,6,5,8,7,1432,808,0,1,"no_press",0,"NGW","noGo",1,"win","Win",141,"2",13
"542","DBGE0324",7,6,5,8,7,1861,743,0,0,"no_press",0,"NGL","noGo",1,"neutral","Avoid",142,"2",9
"543","DBGE0324",5,6,5,8,7,2609,686,642,-1,"press",1,"GAL","Go",1,"lose","Avoid",143,"2",15
"544","DBGE0324",6,6,5,8,7,2930,831,1011,1,"press",1,"GW","Go",1,"win","Win",144,"2",7
"545","DBGE0324",7,6,5,8,7,1772,650,0,0,"no_press",0,"NGL","noGo",1,"neutral","Avoid",145,"2",10
"546","DBGE0324",5,6,5,8,7,1385,784,798,0,"press",1,"GAL","Go",1,"neutral","Avoid",146,"2",16
"547","DBGE0324",8,6,5,8,7,1206,835,0,1,"no_press",0,"NGW","noGo",1,"win","Win",147,"2",14
"548","DBGE0324",6,6,5,8,7,1483,845,612,0,"press",1,"GW","Go",1,"neutral","Win",148,"2",8
"549","DBGE0324",5,6,5,8,7,2692,606,851,0,"press",1,"GAL","Go",1,"neutral","Avoid",149,"2",17
"550","DBGE0324",6,6,5,8,7,1249,729,782,1,"press",1,"GW","Go",1,"win","Win",150,"2",9
"551","DBGE0324",6,6,5,8,7,1505,795,686,1,"press",1,"GW","Go",1,"win","Win",151,"2",10
"552","DBGE0324",6,6,5,8,7,2695,512,590,1,"press",1,"GW","Go",1,"win","Win",152,"2",11
"553","DBGE0324",7,6,5,8,7,1354,566,0,0,"no_press",0,"NGL","noGo",1,"neutral","Avoid",153,"2",11
"554","DBGE0324",6,6,5,8,7,1842,772,877,1,"press",1,"GW","Go",1,"win","Win",154,"2",12
"555","DBGE0324",5,6,5,8,7,1842,831,449,0,"press",1,"GAL","Go",1,"neutral","Avoid",155,"2",18
"556","DBGE0324",6,6,5,8,7,1630,993,712,1,"press",1,"GW","Go",1,"win","Win",156,"2",13
"557","DBGE0324",5,6,5,8,7,1267,632,638,-1,"press",1,"GAL","Go",1,"lose","Avoid",157,"2",19
"558","DBGE0324",5,6,5,8,7,1864,549,435,0,"press",1,"GAL","Go",1,"neutral","Avoid",158,"2",20
"559","DBGE0324",7,6,5,8,7,1198,924,0,0,"no_press",0,"NGL","noGo",1,"neutral","Avoid",159,"2",12
"560","DBGE0324",6,6,5,8,7,1504,510,614,1,"press",1,"GW","Go",1,"win","Win",160,"2",14
"561","DBGE0324",8,6,5,8,7,1746,960,0,1,"no_press",0,"NGW","noGo",1,"win","Win",161,"2",15
"562","DBGE0324",7,6,5,8,7,2224,742,0,0,"no_press",0,"NGL","noGo",1,"neutral","Avoid",162,"2",13
"563","DBGE0324",8,6,5,8,7,2817,607,0,1,"no_press",0,"NGW","noGo",1,"win","Win",163,"2",16
"564","DBGE0324",7,6,5,8,7,1785,742,0,0,"no_press",0,"NGL","noGo",1,"neutral","Avoid",164,"2",14
"565","DBGE0324",5,6,5,8,7,2528,549,680,-1,"press",1,"GAL","Go",1,"lose","Avoid",165,"2",21
"566","DBGE0324",6,6,5,8,7,1666,536,655,1,"press",1,"GW","Go",1,"win","Win",166,"2",15
"567","DBGE0324",5,6,5,8,7,1966,649,657,0,"press",1,"GAL","Go",1,"neutral","Avoid",167,"2",22
"568","DBGE0324",6,6,5,8,7,1942,677,646,1,"press",1,"GW","Go",1,"win","Win",168,"2",16
"569","DBGE0324",7,6,5,8,7,2074,557,0,-1,"no_press",0,"NGL","noGo",1,"lose","Avoid",169,"2",15
"570","DBGE0324",8,6,5,8,7,1344,764,0,1,"no_press",0,"NGW","noGo",1,"win","Win",170,"2",17
"571","DBGE0324",6,6,5,8,7,1592,758,1034,1,"press",1,"GW","Go",1,"win","Win",171,"2",17
"572","DBGE0324",8,6,5,8,7,3412,563,0,1,"no_press",0,"NGW","noGo",1,"win","Win",172,"2",18
"573","DBGE0324",6,6,5,8,7,2272,905,957,1,"press",1,"GW","Go",1,"win","Win",173,"2",18
"574","DBGE0324",6,6,5,8,7,1715,849,613,1,"press",1,"GW","Go",1,"win","Win",174,"2",19
"575","DBGE0324",6,6,5,8,7,3279,564,571,0,"press",1,"GW","Go",1,"neutral","Win",175,"2",20
"576","DBGE0324",6,6,5,8,7,2388,706,693,1,"press",1,"GW","Go",1,"win","Win",176,"2",21
"577","DBGE0324",7,6,5,8,7,2381,844,0,0,"no_press",0,"NGL","noGo",1,"neutral","Avoid",177,"2",16
"578","DBGE0324",7,6,5,8,7,2032,744,0,0,"no_press",0,"NGL","noGo",1,"neutral","Avoid",178,"2",17
"579","DBGE0324",6,6,5,8,7,1826,813,627,0,"press",1,"GW","Go",1,"neutral","Win",179,"2",22
"580","DBGE0324",8,6,5,8,7,2448,895,0,1,"no_press",0,"NGW","noGo",1,"win","Win",180,"2",19
"581","DBGE0324",6,6,5,8,7,2257,972,1150,0,"press",1,"GW","Go",1,"neutral","Win",181,"2",23
"582","DBGE0324",7,6,5,8,7,3626,901,0,0,"no_press",0,"NGL","noGo",1,"neutral","Avoid",182,"2",18
"583","DBGE0324",8,6,5,8,7,2107,566,0,0,"no_press",0,"NGW","noGo",1,"neutral","Win",183,"2",20
"584","DBGE0324",5,6,5,8,7,2287,935,631,0,"press",1,"GAL","Go",1,"neutral","Avoid",184,"2",23
"585","DBGE0324",8,6,5,8,7,1537,760,0,1,"no_press",0,"NGW","noGo",1,"win","Win",185,"2",21
"586","DBGE0324",7,6,5,8,7,1457,573,0,0,"no_press",0,"NGL","noGo",1,"neutral","Avoid",186,"2",19
"587","DBGE0324",7,6,5,8,7,1869,502,0,-1,"no_press",0,"NGL","noGo",1,"lose","Avoid",187,"2",20
"588","DBGE0324",7,6,5,8,7,1318,669,0,0,"no_press",0,"NGL","noGo",1,"neutral","Avoid",188,"2",21
"589","DBGE0324",8,6,5,8,7,2998,964,0,0,"no_press",0,"NGW","noGo",1,"neutral","Win",189,"2",22
"590","DBGE0324",5,6,5,8,7,1729,853,622,0,"press",1,"GAL","Go",1,"neutral","Avoid",190,"2",24
"591","DBGE0324",7,6,5,8,7,1824,642,0,0,"no_press",0,"NGL","noGo",1,"neutral","Avoid",191,"2",22
"592","DBGE0324",8,6,5,8,7,2664,551,0,1,"no_press",0,"NGW","noGo",1,"win","Win",192,"2",23
"593","DBGE0324",6,6,5,8,7,1635,668,461,1,"press",1,"GW","Go",1,"win","Win",193,"2",24
"594","DBGE0324",7,6,5,8,7,2247,789,0,0,"no_press",0,"NGL","noGo",1,"neutral","Avoid",194,"2",23
"595","DBGE0324",8,6,5,8,7,1948,886,0,1,"no_press",0,"NGW","noGo",1,"win","Win",195,"2",24
"596","DBGE0324",5,6,5,8,7,1544,766,676,0,"press",1,"GAL","Go",1,"neutral","Avoid",196,"2",25
"597","DBGE0324",7,6,5,8,7,1855,785,0,-1,"no_press",0,"NGL","noGo",1,"lose","Avoid",197,"2",24
"598","DBGE0324",7,6,5,8,7,1229,504,0,0,"no_press",0,"NGL","noGo",1,"neutral","Avoid",198,"2",25
"599","DBGE0324",8,6,5,8,7,1289,569,0,0,"no_press",0,"NGW","noGo",1,"neutral","Win",199,"2",25
"600","DBGE0324",6,6,5,8,7,2548,752,767,1,"press",1,"GW","Go",1,"win","Win",200,"2",25
"601","DBGE0324",9,12,9,10,11,1238,871,796,0,"press",1,"GAL","Go",1,"neutral","Avoid",201,"3",1
"602","DBGE0324",10,12,9,10,11,2540,505,641,0,"press",1,"NGW","noGo",0,"neutral","Win",202,"3",1
"603","DBGE0324",11,12,9,10,11,1802,952,495,-1,"press",1,"NGL","noGo",0,"lose","Avoid",203,"3",1
"604","DBGE0324",11,12,9,10,11,2122,804,1006,-1,"press",1,"NGL","noGo",0,"lose","Avoid",204,"3",2
"605","DBGE0324",11,12,9,10,11,2601,779,0,0,"no_press",0,"NGL","noGo",1,"neutral","Avoid",205,"3",3
"606","DBGE0324",10,12,9,10,11,1452,969,954,1,"press",1,"NGW","noGo",0,"win","Win",206,"3",2
"607","DBGE0324",9,12,9,10,11,2084,757,826,0,"press",1,"GAL","Go",1,"neutral","Avoid",207,"3",2
"608","DBGE0324",9,12,9,10,11,1807,908,716,-1,"press",1,"GAL","Go",1,"lose","Avoid",208,"3",3
"609","DBGE0324",10,12,9,10,11,2019,823,719,0,"press",1,"NGW","noGo",0,"neutral","Win",209,"3",3
"610","DBGE0324",12,12,9,10,11,1845,749,0,0,"no_press",0,"GW","Go",0,"neutral","Win",210,"3",1
"611","DBGE0324",11,12,9,10,11,1678,886,0,0,"no_press",0,"NGL","noGo",1,"neutral","Avoid",211,"3",4
"612","DBGE0324",9,12,9,10,11,2571,829,808,-1,"press",1,"GAL","Go",1,"lose","Avoid",212,"3",4
"613","DBGE0324",10,12,9,10,11,2719,709,571,0,"press",1,"NGW","noGo",0,"neutral","Win",213,"3",4
"614","DBGE0324",9,12,9,10,11,2026,659,606,0,"press",1,"GAL","Go",1,"neutral","Avoid",214,"3",5
"615","DBGE0324",11,12,9,10,11,1000,949,0,0,"no_press",0,"NGL","noGo",1,"neutral","Avoid",215,"3",5
"616","DBGE0324",12,12,9,10,11,2283,573,0,1,"no_press",0,"GW","Go",0,"win","Win",216,"3",2
"617","DBGE0324",11,12,9,10,11,1990,783,0,0,"no_press",0,"NGL","noGo",1,"neutral","Avoid",217,"3",6
"618","DBGE0324",10,12,9,10,11,1484,723,624,1,"press",1,"NGW","noGo",0,"win","Win",218,"3",5
"619","DBGE0324",9,12,9,10,11,1825,852,761,0,"press",1,"GAL","Go",1,"neutral","Avoid",219,"3",6
"620","DBGE0324",9,12,9,10,11,2490,969,646,-1,"press",1,"GAL","Go",1,"lose","Avoid",220,"3",7
"621","DBGE0324",10,12,9,10,11,3029,975,614,0,"press",1,"NGW","noGo",0,"neutral","Win",221,"3",6
"622","DBGE0324",9,12,9,10,11,2547,630,543,0,"press",1,"GAL","Go",1,"neutral","Avoid",222,"3",8
"623","DBGE0324",9,12,9,10,11,1753,629,612,-1,"press",1,"GAL","Go",1,"lose","Avoid",223,"3",9
"624","DBGE0324",9,12,9,10,11,2038,663,591,0,"press",1,"GAL","Go",1,"neutral","Avoid",224,"3",10
"625","DBGE0324",10,12,9,10,11,2493,771,549,0,"press",1,"NGW","noGo",0,"neutral","Win",225,"3",7
"626","DBGE0324",12,12,9,10,11,2323,666,0,1,"no_press",0,"GW","Go",0,"win","Win",226,"3",3
"627","DBGE0324",10,12,9,10,11,1965,938,632,0,"press",1,"NGW","noGo",0,"neutral","Win",227,"3",8
"628","DBGE0324",10,12,9,10,11,2524,793,956,0,"press",1,"NGW","noGo",0,"neutral","Win",228,"3",9
"629","DBGE0324",10,12,9,10,11,2330,653,611,0,"press",1,"NGW","noGo",0,"neutral","Win",229,"3",10
"630","DBGE0324",11,12,9,10,11,1889,673,0,-1,"no_press",0,"NGL","noGo",1,"lose","Avoid",230,"3",7
"631","DBGE0324",11,12,9,10,11,2315,691,0,0,"no_press",0,"NGL","noGo",1,"neutral","Avoid",231,"3",8
"632","DBGE0324",12,12,9,10,11,2131,991,0,1,"no_press",0,"GW","Go",0,"win","Win",232,"3",4
"633","DBGE0324",11,12,9,10,11,3020,670,0,0,"no_press",0,"NGL","noGo",1,"neutral","Avoid",233,"3",9
"634","DBGE0324",11,12,9,10,11,2538,848,0,0,"no_press",0,"NGL","noGo",1,"neutral","Avoid",234,"3",10
"635","DBGE0324",12,12,9,10,11,1613,981,0,0,"no_press",0,"GW","Go",0,"neutral","Win",235,"3",5
"636","DBGE0324",9,12,9,10,11,2885,642,714,0,"press",1,"GAL","Go",1,"neutral","Avoid",236,"3",11
"637","DBGE0324",11,12,9,10,11,1848,762,0,0,"no_press",0,"NGL","noGo",1,"neutral","Avoid",237,"3",11
"638","DBGE0324",10,12,9,10,11,3029,623,619,0,"press",1,"NGW","noGo",0,"neutral","Win",238,"3",11
"639","DBGE0324",12,12,9,10,11,2357,638,0,1,"no_press",0,"GW","Go",0,"win","Win",239,"3",6
"640","DBGE0324",10,12,9,10,11,1795,808,605,0,"press",1,"NGW","noGo",0,"neutral","Win",240,"3",12
"641","DBGE0324",12,12,9,10,11,1554,800,0,0,"no_press",0,"GW","Go",0,"neutral","Win",241,"3",7
"642","DBGE0324",11,12,9,10,11,2380,562,0,-1,"no_press",0,"NGL","noGo",1,"lose","Avoid",242,"3",12
"643","DBGE0324",9,12,9,10,11,2057,843,648,0,"press",1,"GAL","Go",1,"neutral","Avoid",243,"3",12
"644","DBGE0324",10,12,9,10,11,1000,753,716,0,"press",1,"NGW","noGo",0,"neutral","Win",244,"3",13
"645","DBGE0324",12,12,9,10,11,1931,673,0,0,"no_press",0,"GW","Go",0,"neutral","Win",245,"3",8
"646","DBGE0324",10,12,9,10,11,2228,879,647,0,"press",1,"NGW","noGo",0,"neutral","Win",246,"3",14
"647","DBGE0324",12,12,9,10,11,1465,595,0,0,"no_press",0,"GW","Go",0,"neutral","Win",247,"3",9
"648","DBGE0324",12,12,9,10,11,1588,907,0,0,"no_press",0,"GW","Go",0,"neutral","Win",248,"3",10
"649","DBGE0324",11,12,9,10,11,2745,977,0,0,"no_press",0,"NGL","noGo",1,"neutral","Avoid",249,"3",13
"650","DBGE0324",11,12,9,10,11,2129,586,0,0,"no_press",0,"NGL","noGo",1,"neutral","Avoid",250,"3",14
"651","DBGE0324",11,12,9,10,11,1829,572,0,0,"no_press",0,"NGL","noGo",1,"neutral","Avoid",251,"3",15
"652","DBGE0324",10,12,9,10,11,1842,678,554,0,"press",1,"NGW","noGo",0,"neutral","Win",252,"3",15
"653","DBGE0324",10,12,9,10,11,2285,799,676,1,"press",1,"NGW","noGo",0,"win","Win",253,"3",16
"654","DBGE0324",11,12,9,10,11,2404,707,0,0,"no_press",0,"NGL","noGo",1,"neutral","Avoid",254,"3",16
"655","DBGE0324",12,12,9,10,11,2964,769,0,0,"no_press",0,"GW","Go",0,"neutral","Win",255,"3",11
"656","DBGE0324",12,12,9,10,11,2140,748,0,0,"no_press",0,"GW","Go",0,"neutral","Win",256,"3",12
"657","DBGE0324",9,12,9,10,11,2206,714,737,-1,"press",1,"GAL","Go",1,"lose","Avoid",257,"3",13
"658","DBGE0324",12,12,9,10,11,1763,607,0,0,"no_press",0,"GW","Go",0,"neutral","Win",258,"3",13
"659","DBGE0324",11,12,9,10,11,1462,689,0,-1,"no_press",0,"NGL","noGo",1,"lose","Avoid",259,"3",17
"660","DBGE0324",9,12,9,10,11,2252,927,594,0,"press",1,"GAL","Go",1,"neutral","Avoid",260,"3",14
"661","DBGE0324",11,12,9,10,11,2045,511,0,0,"no_press",0,"NGL","noGo",1,"neutral","Avoid",261,"3",18
"662","DBGE0324",12,12,9,10,11,2481,764,0,0,"no_press",0,"GW","Go",0,"neutral","Win",262,"3",14
"663","DBGE0324",11,12,9,10,11,1717,762,0,0,"no_press",0,"NGL","noGo",1,"neutral","Avoid",263,"3",19
"664","DBGE0324",10,12,9,10,11,1921,700,692,0,"press",1,"NGW","noGo",0,"neutral","Win",264,"3",17
"665","DBGE0324",9,12,9,10,11,1841,504,944,0,"press",1,"GAL","Go",1,"neutral","Avoid",265,"3",15
"666","DBGE0324",12,12,9,10,11,1674,941,0,0,"no_press",0,"GW","Go",0,"neutral","Win",266,"3",15
"667","DBGE0324",9,12,9,10,11,2523,974,508,0,"press",1,"GAL","Go",1,"neutral","Avoid",267,"3",16
"668","DBGE0324",11,12,9,10,11,2818,983,0,0,"no_press",0,"NGL","noGo",1,"neutral","Avoid",268,"3",20
"669","DBGE0324",11,12,9,10,11,1249,641,0,0,"no_press",0,"NGL","noGo",1,"neutral","Avoid",269,"3",21
"670","DBGE0324",10,12,9,10,11,1822,640,0,0,"no_press",0,"NGW","noGo",1,"neutral","Win",270,"3",18
"671","DBGE0324",12,12,9,10,11,2104,534,0,0,"no_press",0,"GW","Go",0,"neutral","Win",271,"3",16
"672","DBGE0324",11,12,9,10,11,1326,573,0,-1,"no_press",0,"NGL","noGo",1,"lose","Avoid",272,"3",22
"673","DBGE0324",9,12,9,10,11,2337,864,759,0,"press",1,"GAL","Go",1,"neutral","Avoid",273,"3",17
"674","DBGE0324",12,12,9,10,11,2036,882,0,0,"no_press",0,"GW","Go",0,"neutral","Win",274,"3",17
"675","DBGE0324",10,12,9,10,11,1000,984,636,0,"press",1,"NGW","noGo",0,"neutral","Win",275,"3",19
"676","DBGE0324",12,12,9,10,11,2227,841,0,0,"no_press",0,"GW","Go",0,"neutral","Win",276,"3",18
"677","DBGE0324",10,12,9,10,11,1715,689,636,0,"press",1,"NGW","noGo",0,"neutral","Win",277,"3",20
"678","DBGE0324",11,12,9,10,11,1671,718,0,0,"no_press",0,"NGL","noGo",1,"neutral","Avoid",278,"3",23
"679","DBGE0324",12,12,9,10,11,2126,682,0,0,"no_press",0,"GW","Go",0,"neutral","Win",279,"3",19
"680","DBGE0324",10,12,9,10,11,2299,675,507,0,"press",1,"NGW","noGo",0,"neutral","Win",280,"3",21
"681","DBGE0324",10,12,9,10,11,1764,590,503,1,"press",1,"NGW","noGo",0,"win","Win",281,"3",22
"682","DBGE0324",9,12,9,10,11,1596,915,556,0,"press",1,"GAL","Go",1,"neutral","Avoid",282,"3",18
"683","DBGE0324",9,12,9,10,11,1812,915,793,0,"press",1,"GAL","Go",1,"neutral","Avoid",283,"3",19
"684","DBGE0324",12,12,9,10,11,2266,675,0,0,"no_press",0,"GW","Go",0,"neutral","Win",284,"3",20
"685","DBGE0324",9,12,9,10,11,1000,522,949,0,"press",1,"GAL","Go",1,"neutral","Avoid",285,"3",20
"686","DBGE0324",9,12,9,10,11,1798,765,547,0,"press",1,"GAL","Go",1,"neutral","Avoid",286,"3",21
"687","DBGE0324",12,12,9,10,11,2451,996,0,0,"no_press",0,"GW","Go",0,"neutral","Win",287,"3",21
"688","DBGE0324",9,12,9,10,11,1402,551,571,0,"press",1,"GAL","Go",1,"neutral","Avoid",288,"3",22
"689","DBGE0324",12,12,9,10,11,1482,916,0,0,"no_press",0,"GW","Go",0,"neutral","Win",289,"3",22
"690","DBGE0324",11,12,9,10,11,1191,939,0,0,"no_press",0,"NGL","noGo",1,"neutral","Avoid",290,"3",24
"691","DBGE0324",12,12,9,10,11,1729,897,0,1,"no_press",0,"GW","Go",0,"win","Win",291,"3",23
"692","DBGE0324",10,12,9,10,11,2318,898,413,0,"press",1,"NGW","noGo",0,"neutral","Win",292,"3",23
"693","DBGE0324",12,12,9,10,11,1570,710,0,0,"no_press",0,"GW","Go",0,"neutral","Win",293,"3",24
"694","DBGE0324",10,12,9,10,11,1885,817,548,0,"press",1,"NGW","noGo",0,"neutral","Win",294,"3",24
"695","DBGE0324",11,12,9,10,11,1000,980,0,-1,"no_press",0,"NGL","noGo",1,"lose","Avoid",295,"3",25
"696","DBGE0324",9,12,9,10,11,1250,758,560,0,"press",1,"GAL","Go",1,"neutral","Avoid",296,"3",23
"697","DBGE0324",9,12,9,10,11,2382,570,557,0,"press",1,"GAL","Go",1,"neutral","Avoid",297,"3",24
"698","DBGE0324",10,12,9,10,11,2207,632,847,0,"press",1,"NGW","noGo",0,"neutral","Win",298,"3",25
"699","DBGE0324",12,12,9,10,11,2237,538,0,0,"no_press",0,"GW","Go",0,"neutral","Win",299,"3",25
"700","DBGE0324",9,12,9,10,11,1922,600,524,0,"press",1,"GAL","Go",1,"neutral","Avoid",300,"3",25
"701","DBGE0324",14,16,13,14,15,2195,757,1124,0,"press",1,"NGW","noGo",0,"neutral","Win",301,"4",1
"702","DBGE0324",16,16,13,14,15,2166,854,573,1,"press",1,"GW","Go",1,"win","Win",302,"4",1
"703","DBGE0324",13,16,13,14,15,2724,874,767,0,"press",1,"GAL","Go",1,"neutral","Avoid",303,"4",1
"704","DBGE0324",13,16,13,14,15,2977,942,820,0,"press",1,"GAL","Go",1,"neutral","Avoid",304,"4",2
"705","DBGE0324",14,16,13,14,15,1364,752,0,1,"no_press",0,"NGW","noGo",1,"win","Win",305,"4",2
"706","DBGE0324",16,16,13,14,15,2664,707,813,1,"press",1,"GW","Go",1,"win","Win",306,"4",2
"707","DBGE0324",16,16,13,14,15,1547,862,882,0,"press",1,"GW","Go",1,"neutral","Win",307,"4",3
"708","DBGE0324",14,16,13,14,15,2209,892,0,1,"no_press",0,"NGW","noGo",1,"win","Win",308,"4",3
"709","DBGE0324",15,16,13,14,15,1885,655,0,0,"no_press",0,"NGL","noGo",1,"neutral","Avoid",309,"4",1
"710","DBGE0324",14,16,13,14,15,2822,942,0,1,"no_press",0,"NGW","noGo",1,"win","Win",310,"4",4
"711","DBGE0324",16,16,13,14,15,1552,918,601,1,"press",1,"GW","Go",1,"win","Win",311,"4",4
"712","DBGE0324",13,16,13,14,15,1941,704,0,0,"no_press",0,"GAL","Go",0,"neutral","Avoid",312,"4",3
"713","DBGE0324",15,16,13,14,15,1562,887,876,-1,"press",1,"NGL","noGo",0,"lose","Avoid",313,"4",2
"714","DBGE0324",16,16,13,14,15,1555,703,1118,1,"press",1,"GW","Go",1,"win","Win",314,"4",5
"715","DBGE0324",13,16,13,14,15,1826,585,1048,0,"press",1,"GAL","Go",1,"neutral","Avoid",315,"4",4
"716","DBGE0324",15,16,13,14,15,2444,738,0,0,"no_press",0,"NGL","noGo",1,"neutral","Avoid",316,"4",3
"717","DBGE0324",15,16,13,14,15,1634,868,0,0,"no_press",0,"NGL","noGo",1,"neutral","Avoid",317,"4",4
"718","DBGE0324",15,16,13,14,15,2386,690,0,0,"no_press",0,"NGL","noGo",1,"neutral","Avoid",318,"4",5
"719","DBGE0324",14,16,13,14,15,2072,579,0,1,"no_press",0,"NGW","noGo",1,"win","Win",319,"4",5
"720","DBGE0324",13,16,13,14,15,1883,724,840,0,"press",1,"GAL","Go",1,"neutral","Avoid",320,"4",5
"721","DBGE0324",16,16,13,14,15,2855,813,578,1,"press",1,"GW","Go",1,"win","Win",321,"4",6
"722","DBGE0324",13,16,13,14,15,1784,866,1160,0,"press",1,"GAL","Go",1,"neutral","Avoid",322,"4",6
"723","DBGE0324",15,16,13,14,15,1491,596,0,0,"no_press",0,"NGL","noGo",1,"neutral","Avoid",323,"4",6
"724","DBGE0324",13,16,13,14,15,2066,687,677,-1,"press",1,"GAL","Go",1,"lose","Avoid",324,"4",7
"725","DBGE0324",16,16,13,14,15,2299,644,642,1,"press",1,"GW","Go",1,"win","Win",325,"4",7
"726","DBGE0324",15,16,13,14,15,2372,794,0,-1,"no_press",0,"NGL","noGo",1,"lose","Avoid",326,"4",7
"727","DBGE0324",14,16,13,14,15,1559,751,0,1,"no_press",0,"NGW","noGo",1,"win","Win",327,"4",6
"728","DBGE0324",16,16,13,14,15,2303,688,600,1,"press",1,"GW","Go",1,"win","Win",328,"4",8
"729","DBGE0324",14,16,13,14,15,1346,989,0,1,"no_press",0,"NGW","noGo",1,"win","Win",329,"4",7
"730","DBGE0324",14,16,13,14,15,2085,569,0,1,"no_press",0,"NGW","noGo",1,"win","Win",330,"4",8
"731","DBGE0324",14,16,13,14,15,2125,750,0,0,"no_press",0,"NGW","noGo",1,"neutral","Win",331,"4",9
"732","DBGE0324",16,16,13,14,15,2745,834,649,1,"press",1,"GW","Go",1,"win","Win",332,"4",9
"733","DBGE0324",14,16,13,14,15,2942,927,0,1,"no_press",0,"NGW","noGo",1,"win","Win",333,"4",10
"734","DBGE0324",13,16,13,14,15,2218,973,790,0,"press",1,"GAL","Go",1,"neutral","Avoid",334,"4",8
"735","DBGE0324",15,16,13,14,15,2008,918,0,0,"no_press",0,"NGL","noGo",1,"neutral","Avoid",335,"4",8
"736","DBGE0324",15,16,13,14,15,2503,758,0,0,"no_press",0,"NGL","noGo",1,"neutral","Avoid",336,"4",9
"737","DBGE0324",13,16,13,14,15,2250,978,704,-1,"press",1,"GAL","Go",1,"lose","Avoid",337,"4",9
"738","DBGE0324",14,16,13,14,15,1423,818,0,1,"no_press",0,"NGW","noGo",1,"win","Win",338,"4",11
"739","DBGE0324",15,16,13,14,15,1338,628,0,0,"no_press",0,"NGL","noGo",1,"neutral","Avoid",339,"4",10
"740","DBGE0324",13,16,13,14,15,1963,893,759,0,"press",1,"GAL","Go",1,"neutral","Avoid",340,"4",10
"741","DBGE0324",15,16,13,14,15,1461,546,0,0,"no_press",0,"NGL","noGo",1,"neutral","Avoid",341,"4",11
"742","DBGE0324",16,16,13,14,15,1954,837,562,1,"press",1,"GW","Go",1,"win","Win",342,"4",10
"743","DBGE0324",14,16,13,14,15,2131,799,0,0,"no_press",0,"NGW","noGo",1,"neutral","Win",343,"4",12
"744","DBGE0324",15,16,13,14,15,2063,589,0,0,"no_press",0,"NGL","noGo",1,"neutral","Avoid",344,"4",12
"745","DBGE0324",13,16,13,14,15,1795,768,955,0,"press",1,"GAL","Go",1,"neutral","Avoid",345,"4",11
"746","DBGE0324",16,16,13,14,15,2304,874,757,1,"press",1,"GW","Go",1,"win","Win",346,"4",11
"747","DBGE0324",16,16,13,14,15,2381,608,778,0,"press",1,"GW","Go",1,"neutral","Win",347,"4",12
"748","DBGE0324",13,16,13,14,15,2291,796,636,0,"press",1,"GAL","Go",1,"neutral","Avoid",348,"4",12
"749","DBGE0324",16,16,13,14,15,2478,818,586,0,"press",1,"GW","Go",1,"neutral","Win",349,"4",13
"750","DBGE0324",13,16,13,14,15,1445,709,745,0,"press",1,"GAL","Go",1,"neutral","Avoid",350,"4",13
"751","DBGE0324",15,16,13,14,15,1511,844,0,-1,"no_press",0,"NGL","noGo",1,"lose","Avoid",351,"4",13
"752","DBGE0324",16,16,13,14,15,2103,796,595,1,"press",1,"GW","Go",1,"win","Win",352,"4",14
"753","DBGE0324",13,16,13,14,15,2129,528,635,0,"press",1,"GAL","Go",1,"neutral","Avoid",353,"4",14
"754","DBGE0324",15,16,13,14,15,1591,862,0,0,"no_press",0,"NGL","noGo",1,"neutral","Avoid",354,"4",14
"755","DBGE0324",16,16,13,14,15,1237,909,467,1,"press",1,"GW","Go",1,"win","Win",355,"4",15
"756","DBGE0324",15,16,13,14,15,3099,556,0,-1,"no_press",0,"NGL","noGo",1,"lose","Avoid",356,"4",15
"757","DBGE0324",16,16,13,14,15,2349,675,688,1,"press",1,"GW","Go",1,"win","Win",357,"4",16
"758","DBGE0324",14,16,13,14,15,1372,534,0,1,"no_press",0,"NGW","noGo",1,"win","Win",358,"4",13
"759","DBGE0324",14,16,13,14,15,2088,652,0,0,"no_press",0,"NGW","noGo",1,"neutral","Win",359,"4",14
"760","DBGE0324",14,16,13,14,15,1511,554,0,1,"no_press",0,"NGW","noGo",1,"win","Win",360,"4",15
"761","DBGE0324",13,16,13,14,15,1576,990,714,0,"press",1,"GAL","Go",1,"neutral","Avoid",361,"4",15
"762","DBGE0324",14,16,13,14,15,1166,688,0,1,"no_press",0,"NGW","noGo",1,"win","Win",362,"4",16
"763","DBGE0324",16,16,13,14,15,2004,685,578,1,"press",1,"GW","Go",1,"win","Win",363,"4",17
"764","DBGE0324",14,16,13,14,15,2228,868,0,0,"no_press",0,"NGW","noGo",1,"neutral","Win",364,"4",17
"765","DBGE0324",15,16,13,14,15,3385,747,0,0,"no_press",0,"NGL","noGo",1,"neutral","Avoid",365,"4",16
"766","DBGE0324",16,16,13,14,15,2257,603,646,1,"press",1,"GW","Go",1,"win","Win",366,"4",18
"767","DBGE0324",15,16,13,14,15,2518,531,0,-1,"no_press",0,"NGL","noGo",1,"lose","Avoid",367,"4",17
"768","DBGE0324",15,16,13,14,15,1761,759,0,0,"no_press",0,"NGL","noGo",1,"neutral","Avoid",368,"4",18
"769","DBGE0324",15,16,13,14,15,1000,838,0,0,"no_press",0,"NGL","noGo",1,"neutral","Avoid",369,"4",19
"770","DBGE0324",13,16,13,14,15,1615,778,794,0,"press",1,"GAL","Go",1,"neutral","Avoid",370,"4",16
"771","DBGE0324",16,16,13,14,15,1990,697,580,1,"press",1,"GW","Go",1,"win","Win",371,"4",19
"772","DBGE0324",16,16,13,14,15,1752,760,719,0,"press",1,"GW","Go",1,"neutral","Win",372,"4",20
"773","DBGE0324",13,16,13,14,15,2360,508,654,0,"press",1,"GAL","Go",1,"neutral","Avoid",373,"4",17
"774","DBGE0324",13,16,13,14,15,2234,747,575,0,"press",1,"GAL","Go",1,"neutral","Avoid",374,"4",18
"775","DBGE0324",16,16,13,14,15,1597,970,670,1,"press",1,"GW","Go",1,"win","Win",375,"4",21
"776","DBGE0324",16,16,13,14,15,1742,642,491,0,"press",1,"GW","Go",1,"neutral","Win",376,"4",22
"777","DBGE0324",16,16,13,14,15,1275,851,538,1,"press",1,"GW","Go",1,"win","Win",377,"4",23
"778","DBGE0324",13,16,13,14,15,1246,714,540,-1,"press",1,"GAL","Go",1,"lose","Avoid",378,"4",19
"779","DBGE0324",14,16,13,14,15,2125,759,0,1,"no_press",0,"NGW","noGo",1,"win","Win",379,"4",18
"780","DBGE0324",14,16,13,14,15,2245,852,0,1,"no_press",0,"NGW","noGo",1,"win","Win",380,"4",19
"781","DBGE0324",16,16,13,14,15,1485,761,638,1,"press",1,"GW","Go",1,"win","Win",381,"4",24
"782","DBGE0324",13,16,13,14,15,1614,786,586,0,"press",1,"GAL","Go",1,"neutral","Avoid",382,"4",20
"783","DBGE0324",13,16,13,14,15,2579,745,781,0,"press",1,"GAL","Go",1,"neutral","Avoid",383,"4",21
"784","DBGE0324",15,16,13,14,15,2277,682,0,0,"no_press",0,"NGL","noGo",1,"neutral","Avoid",384,"4",20
"785","DBGE0324",13,16,13,14,15,1000,985,865,-1,"press",1,"GAL","Go",1,"lose","Avoid",385,"4",22
"786","DBGE0324",15,16,13,14,15,1509,900,0,0,"no_press",0,"NGL","noGo",1,"neutral","Avoid",386,"4",21
"787","DBGE0324",14,16,13,14,15,2176,580,0,1,"no_press",0,"NGW","noGo",1,"win","Win",387,"4",20
"788","DBGE0324",15,16,13,14,15,2315,569,0,0,"no_press",0,"NGL","noGo",1,"neutral","Avoid",388,"4",22
"789","DBGE0324",14,16,13,14,15,1655,695,0,1,"no_press",0,"NGW","noGo",1,"win","Win",389,"4",21
"790","DBGE0324",15,16,13,14,15,2864,870,0,-1,"no_press",0,"NGL","noGo",1,"lose","Avoid",390,"4",23
"791","DBGE0324",16,16,13,14,15,1702,948,570,1,"press",1,"GW","Go",1,"win","Win",391,"4",25
"792","DBGE0324",14,16,13,14,15,1433,678,0,1,"no_press",0,"NGW","noGo",1,"win","Win",392,"4",22
"793","DBGE0324",15,16,13,14,15,1598,627,0,0,"no_press",0,"NGL","noGo",1,"neutral","Avoid",393,"4",24
"794","DBGE0324",13,16,13,14,15,1430,810,768,0,"press",1,"GAL","Go",1,"neutral","Avoid",394,"4",23
"795","DBGE0324",14,16,13,14,15,5000,948,0,1,"no_press",0,"NGW","noGo",1,"win","Win",395,"4",23
"796","DBGE0324",15,16,13,14,15,1444,724,0,0,"no_press",0,"NGL","noGo",1,"neutral","Avoid",396,"4",25
"797","DBGE0324",13,16,13,14,15,2239,816,608,0,"press",1,"GAL","Go",1,"neutral","Avoid",397,"4",24
"798","DBGE0324",14,16,13,14,15,1861,756,0,1,"no_press",0,"NGW","noGo",1,"win","Win",398,"4",24
"799","DBGE0324",13,16,13,14,15,1942,640,817,0,"press",1,"GAL","Go",1,"neutral","Avoid",399,"4",25
"800","DBGE0324",14,16,13,14,15,1330,776,0,0,"no_press",0,"NGW","noGo",1,"neutral","Win",400,"4",25
"801","EMPTY0216",2,2,1,4,3,2369,578,0,0,"no_press",0,"GW","Go",0,"neutral","Win",1,"1",1
"802","EMPTY0216",1,2,1,4,3,1596,732,626,0,"press",1,"GAL","Go",1,"neutral","Avoid",2,"1",1
"803","EMPTY0216",2,2,1,4,3,2645,523,0,1,"no_press",0,"GW","Go",0,"win","Win",3,"1",2
"804","EMPTY0216",3,2,1,4,3,2381,789,1087,-1,"press",1,"NGL","noGo",0,"lose","Avoid",4,"1",1
"805","EMPTY0216",1,2,1,4,3,1879,617,755,0,"press",1,"GAL","Go",1,"neutral","Avoid",5,"1",2
"806","EMPTY0216",4,2,1,4,3,2822,555,985,0,"press",1,"NGW","noGo",0,"neutral","Win",6,"1",1
"807","EMPTY0216",2,2,1,4,3,2184,545,0,1,"no_press",0,"GW","Go",0,"win","Win",7,"1",3
"808","EMPTY0216",2,2,1,4,3,1635,759,0,0,"no_press",0,"GW","Go",0,"neutral","Win",8,"1",4
"809","EMPTY0216",2,2,1,4,3,1941,690,0,1,"no_press",0,"GW","Go",0,"win","Win",9,"1",5
"810","EMPTY0216",1,2,1,4,3,1763,685,736,0,"press",1,"GAL","Go",1,"neutral","Avoid",10,"1",3
"811","EMPTY0216",1,2,1,4,3,3279,598,765,0,"press",1,"GAL","Go",1,"neutral","Avoid",11,"1",4
"812","EMPTY0216",2,2,1,4,3,2323,666,0,0,"no_press",0,"GW","Go",0,"neutral","Win",12,"1",6
"813","EMPTY0216",3,2,1,4,3,1576,959,0,0,"no_press",0,"NGL","noGo",1,"neutral","Avoid",13,"1",2
"814","EMPTY0216",1,2,1,4,3,1761,934,0,0,"no_press",0,"GAL","Go",0,"neutral","Avoid",14,"1",5
"815","EMPTY0216",3,2,1,4,3,1614,962,0,0,"no_press",0,"NGL","noGo",1,"neutral","Avoid",15,"1",3
"816","EMPTY0216",1,2,1,4,3,1826,882,756,0,"press",1,"GAL","Go",1,"neutral","Avoid",16,"1",6
"817","EMPTY0216",4,2,1,4,3,2372,885,862,0,"press",1,"NGW","noGo",0,"neutral","Win",17,"1",2
"818","EMPTY0216",1,2,1,4,3,1463,544,620,-1,"press",1,"GAL","Go",1,"lose","Avoid",18,"1",7
"819","EMPTY0216",2,2,1,4,3,1966,562,0,0,"no_press",0,"GW","Go",0,"neutral","Win",19,"1",7
"820","EMPTY0216",3,2,1,4,3,2122,648,0,-1,"no_press",0,"NGL","noGo",1,"lose","Avoid",20,"1",4
"821","EMPTY0216",2,2,1,4,3,1802,663,0,0,"no_press",0,"GW","Go",0,"neutral","Win",21,"1",8
"822","EMPTY0216",1,2,1,4,3,2040,568,747,0,"press",1,"GAL","Go",1,"neutral","Avoid",22,"1",8
"823","EMPTY0216",3,2,1,4,3,2207,883,566,0,"press",1,"NGL","noGo",0,"neutral","Avoid",23,"1",5
"824","EMPTY0216",2,2,1,4,3,2145,849,0,0,"no_press",0,"GW","Go",0,"neutral","Win",24,"1",9
"825","EMPTY0216",1,2,1,4,3,2032,643,599,0,"press",1,"GAL","Go",1,"neutral","Avoid",25,"1",9
"826","EMPTY0216",3,2,1,4,3,1238,513,582,-1,"press",1,"NGL","noGo",0,"lose","Avoid",26,"1",6
"827","EMPTY0216",3,2,1,4,3,2164,632,0,0,"no_press",0,"NGL","noGo",1,"neutral","Avoid",27,"1",7
"828","EMPTY0216",1,2,1,4,3,2088,958,563,-1,"press",1,"GAL","Go",1,"lose","Avoid",28,"1",10
"829","EMPTY0216",3,2,1,4,3,1588,655,0,0,"no_press",0,"NGL","noGo",1,"neutral","Avoid",29,"1",8
"830","EMPTY0216",4,2,1,4,3,2224,669,731,0,"press",1,"NGW","noGo",0,"neutral","Win",30,"1",3
"831","EMPTY0216",1,2,1,4,3,2274,685,0,-1,"no_press",0,"GAL","Go",0,"lose","Avoid",31,"1",11
"832","EMPTY0216",1,2,1,4,3,2344,797,655,0,"press",1,"GAL","Go",1,"neutral","Avoid",32,"1",12
"833","EMPTY0216",3,2,1,4,3,2381,943,978,0,"press",1,"NGL","noGo",0,"neutral","Avoid",33,"1",9
"834","EMPTY0216",3,2,1,4,3,1678,828,742,-1,"press",1,"NGL","noGo",0,"lose","Avoid",34,"1",10
"835","EMPTY0216",2,2,1,4,3,2019,842,1271,0,"press",1,"GW","Go",1,"neutral","Win",35,"1",10
"836","EMPTY0216",4,2,1,4,3,2864,513,637,0,"press",1,"NGW","noGo",0,"neutral","Win",36,"1",4
"837","EMPTY0216",2,2,1,4,3,2388,947,640,1,"press",1,"GW","Go",1,"win","Win",37,"1",11
"838","EMPTY0216",2,2,1,4,3,2386,693,0,0,"no_press",0,"GW","Go",0,"neutral","Win",38,"1",12
"839","EMPTY0216",4,2,1,4,3,1592,587,918,0,"press",1,"NGW","noGo",0,"neutral","Win",39,"1",5
"840","EMPTY0216",4,2,1,4,3,1674,511,625,0,"press",1,"NGW","noGo",0,"neutral","Win",40,"1",6
"841","EMPTY0216",1,2,1,4,3,1746,768,616,0,"press",1,"GAL","Go",1,"neutral","Avoid",41,"1",13
"842","EMPTY0216",2,2,1,4,3,2887,733,959,1,"press",1,"GW","Go",1,"win","Win",42,"1",13
"843","EMPTY0216",4,2,1,4,3,2283,706,0,1,"no_press",0,"NGW","noGo",1,"win","Win",43,"1",7
"844","EMPTY0216",3,2,1,4,3,1267,779,767,-1,"press",1,"NGL","noGo",0,"lose","Avoid",44,"1",11
"845","EMPTY0216",3,2,1,4,3,2444,672,526,-1,"press",1,"NGL","noGo",0,"lose","Avoid",45,"1",12
"846","EMPTY0216",4,2,1,4,3,2266,557,1110,0,"press",1,"NGW","noGo",0,"neutral","Win",46,"1",8
"847","EMPTY0216",4,2,1,4,3,1779,894,664,0,"press",1,"NGW","noGo",0,"neutral","Win",47,"1",9
"848","EMPTY0216",3,2,1,4,3,2087,676,0,-1,"no_press",0,"NGL","noGo",1,"lose","Avoid",48,"1",13
"849","EMPTY0216",4,2,1,4,3,2008,826,786,0,"press",1,"NGW","noGo",0,"neutral","Win",49,"1",10
"850","EMPTY0216",3,2,1,4,3,1597,561,0,0,"no_press",0,"NGL","noGo",1,"neutral","Avoid",50,"1",14
"851","EMPTY0216",1,2,1,4,3,1807,737,791,0,"press",1,"GAL","Go",1,"neutral","Avoid",51,"1",14
"852","EMPTY0216",2,2,1,4,3,2490,811,1151,1,"press",1,"GW","Go",1,"win","Win",52,"1",14
"853","EMPTY0216",3,2,1,4,3,2072,827,0,-1,"no_press",0,"NGL","noGo",1,"lose","Avoid",53,"1",15
"854","EMPTY0216",4,2,1,4,3,1951,546,927,0,"press",1,"NGW","noGo",0,"neutral","Win",54,"1",11
"855","EMPTY0216",1,2,1,4,3,1936,526,710,0,"press",1,"GAL","Go",1,"neutral","Avoid",55,"1",15
"856","EMPTY0216",4,2,1,4,3,2380,866,547,1,"press",1,"NGW","noGo",0,"win","Win",56,"1",12
"857","EMPTY0216",3,2,1,4,3,1237,875,0,0,"no_press",0,"NGL","noGo",1,"neutral","Avoid",57,"1",16
"858","EMPTY0216",3,2,1,4,3,1495,859,0,0,"no_press",0,"NGL","noGo",1,"neutral","Avoid",58,"1",17
"859","EMPTY0216",4,2,1,4,3,2304,701,587,1,"press",1,"NGW","noGo",0,"win","Win",59,"1",13
"860","EMPTY0216",2,2,1,4,3,1965,699,990,1,"press",1,"GW","Go",1,"win","Win",60,"1",15
"861","EMPTY0216",1,2,1,4,3,2247,643,1106,0,"press",1,"GAL","Go",1,"neutral","Avoid",61,"1",16
"862","EMPTY0216",1,2,1,4,3,2402,833,0,0,"no_press",0,"GAL","Go",0,"neutral","Avoid",62,"1",17
"863","EMPTY0216",4,2,1,4,3,1318,863,693,0,"press",1,"NGW","noGo",0,"neutral","Win",63,"1",14
"864","EMPTY0216",2,2,1,4,3,1385,659,616,1,"press",1,"GW","Go",1,"win","Win",64,"1",16
"865","EMPTY0216",4,2,1,4,3,1461,986,0,1,"no_press",0,"NGW","noGo",1,"win","Win",65,"1",15
"866","EMPTY0216",4,2,1,4,3,2451,805,548,1,"press",1,"NGW","noGo",0,"win","Win",66,"1",16
"867","EMPTY0216",3,2,1,4,3,1864,598,0,0,"no_press",0,"NGL","noGo",1,"neutral","Avoid",67,"1",18
"868","EMPTY0216",2,2,1,4,3,2287,545,665,0,"press",1,"GW","Go",1,"neutral","Win",68,"1",17
"869","EMPTY0216",4,2,1,4,3,2129,606,827,0,"press",1,"NGW","noGo",0,"neutral","Win",69,"1",17
"870","EMPTY0216",2,2,1,4,3,1752,974,965,1,"press",1,"GW","Go",1,"win","Win",70,"1",18
"871","EMPTY0216",3,2,1,4,3,1759,949,531,-1,"press",1,"NGL","noGo",0,"lose","Avoid",71,"1",19
"872","EMPTY0216",4,2,1,4,3,2195,580,742,0,"press",1,"NGW","noGo",0,"neutral","Win",72,"1",18
"873","EMPTY0216",1,2,1,4,3,2285,686,655,0,"press",1,"GAL","Go",1,"neutral","Avoid",73,"1",18
"874","EMPTY0216",3,2,1,4,3,1494,596,686,-1,"press",1,"NGL","noGo",0,"lose","Avoid",74,"1",20
"875","EMPTY0216",4,2,1,4,3,3016,924,565,1,"press",1,"NGW","noGo",0,"win","Win",75,"1",19
"876","EMPTY0216",1,2,1,4,3,1552,644,0,-1,"no_press",0,"GAL","Go",0,"lose","Avoid",76,"1",19
"877","EMPTY0216",1,2,1,4,3,1743,538,541,0,"press",1,"GAL","Go",1,"neutral","Avoid",77,"1",20
"878","EMPTY0216",3,2,1,4,3,1191,554,1116,-1,"press",1,"NGL","noGo",0,"lose","Avoid",78,"1",21
"879","EMPTY0216",4,2,1,4,3,1784,580,608,1,"press",1,"NGW","noGo",0,"win","Win",79,"1",20
"880","EMPTY0216",3,2,1,4,3,1266,615,640,-1,"press",1,"NGL","noGo",0,"lose","Avoid",80,"1",22
"881","EMPTY0216",1,2,1,4,3,1433,617,0,-1,"no_press",0,"GAL","Go",0,"lose","Avoid",81,"1",21
"882","EMPTY0216",2,2,1,4,3,1598,876,416,1,"press",1,"GW","Go",1,"win","Win",82,"1",19
"883","EMPTY0216",3,2,1,4,3,2977,839,322,-1,"press",1,"NGL","noGo",0,"lose","Avoid",83,"1",23
"884","EMPTY0216",2,2,1,4,3,1503,503,511,1,"press",1,"GW","Go",1,"win","Win",84,"1",20
"885","EMPTY0216",3,2,1,4,3,1346,988,0,0,"no_press",0,"NGL","noGo",1,"neutral","Avoid",85,"1",24
"886","EMPTY0216",3,2,1,4,3,1504,981,1058,-1,"press",1,"NGL","noGo",0,"lose","Avoid",86,"1",25
"887","EMPTY0216",1,2,1,4,3,1445,546,790,0,"press",1,"GAL","Go",1,"neutral","Avoid",87,"1",22
"888","EMPTY0216",4,2,1,4,3,1467,841,727,0,"press",1,"NGW","noGo",0,"neutral","Win",88,"1",21
"889","EMPTY0216",2,2,1,4,3,1546,845,629,1,"press",1,"GW","Go",1,"win","Win",89,"1",21
"890","EMPTY0216",4,2,1,4,3,1842,598,490,0,"press",1,"NGW","noGo",0,"neutral","Win",90,"1",22
"891","EMPTY0216",4,2,1,4,3,1932,631,729,0,"press",1,"NGW","noGo",0,"neutral","Win",91,"1",23
"892","EMPTY0216",1,2,1,4,3,2228,843,806,-1,"press",1,"GAL","Go",1,"lose","Avoid",92,"1",23
"893","EMPTY0216",4,2,1,4,3,2493,722,562,0,"press",1,"NGW","noGo",0,"neutral","Win",93,"1",24
"894","EMPTY0216",2,2,1,4,3,2785,804,1159,1,"press",1,"GW","Go",1,"win","Win",94,"1",22
"895","EMPTY0216",1,2,1,4,3,3515,950,655,0,"press",1,"GAL","Go",1,"neutral","Avoid",95,"1",24
"896","EMPTY0216",1,2,1,4,3,3020,864,882,0,"press",1,"GAL","Go",1,"neutral","Avoid",96,"1",25
"897","EMPTY0216",2,2,1,4,3,2234,856,926,1,"press",1,"GW","Go",1,"win","Win",97,"1",23
"898","EMPTY0216",2,2,1,4,3,1166,536,473,1,"press",1,"GW","Go",1,"win","Win",98,"1",24
"899","EMPTY0216",4,2,1,4,3,1932,588,796,0,"press",1,"NGW","noGo",0,"neutral","Win",99,"1",25
"900","EMPTY0216",2,2,1,4,3,1795,529,441,1,"press",1,"GW","Go",1,"win","Win",100,"1",25
"901","EMPTY0216",6,6,7,8,5,1000,566,895,1,"press",1,"GW","Go",1,"win","Win",101,"2",1
"902","EMPTY0216",8,6,7,8,5,1613,574,0,1,"no_press",0,"NGW","noGo",1,"win","Win",102,"2",1
"903","EMPTY0216",8,6,7,8,5,2080,927,304,0,"press",1,"NGW","noGo",0,"neutral","Win",103,"2",2
"904","EMPTY0216",7,6,7,8,5,2538,927,0,-1,"no_press",0,"GAL","Go",0,"lose","Avoid",104,"2",1
"905","EMPTY0216",5,6,7,8,5,1693,878,1046,-1,"press",1,"NGL","noGo",0,"lose","Avoid",105,"2",1
"906","EMPTY0216",5,6,7,8,5,2306,635,0,-1,"no_press",0,"NGL","noGo",1,"lose","Avoid",106,"2",2
"907","EMPTY0216",8,6,7,8,5,1536,521,0,1,"no_press",0,"NGW","noGo",1,"win","Win",107,"2",3
"908","EMPTY0216",5,6,7,8,5,1246,544,0,0,"no_press",0,"NGL","noGo",1,"neutral","Avoid",108,"2",3
"909","EMPTY0216",5,6,7,8,5,2277,653,522,-1,"press",1,"NGL","noGo",0,"lose","Avoid",109,"2",4
"910","EMPTY0216",7,6,7,8,5,1275,993,1193,0,"press",1,"GAL","Go",1,"neutral","Avoid",110,"2",2
"911","EMPTY0216",5,6,7,8,5,2257,513,0,-1,"no_press",0,"NGL","noGo",1,"lose","Avoid",111,"2",5
"912","EMPTY0216",5,6,7,8,5,1509,800,0,0,"no_press",0,"NGL","noGo",1,"neutral","Avoid",112,"2",6
"913","EMPTY0216",6,6,7,8,5,1842,916,782,0,"press",1,"GW","Go",1,"neutral","Win",113,"2",2
"914","EMPTY0216",8,6,7,8,5,1000,794,0,1,"no_press",0,"NGW","noGo",1,"win","Win",114,"2",4
"915","EMPTY0216",6,6,7,8,5,2234,910,683,1,"press",1,"GW","Go",1,"win","Win",115,"2",3
"916","EMPTY0216",8,6,7,8,5,1329,963,0,1,"no_press",0,"NGW","noGo",1,"win","Win",116,"2",5
"917","EMPTY0216",5,6,7,8,5,2528,884,0,0,"no_press",0,"NGL","noGo",1,"neutral","Avoid",117,"2",7
"918","EMPTY0216",6,6,7,8,5,2074,641,917,1,"press",1,"GW","Go",1,"win","Win",118,"2",4
"919","EMPTY0216",8,6,7,8,5,1885,899,0,1,"no_press",0,"NGW","noGo",1,"win","Win",119,"2",6
"920","EMPTY0216",6,6,7,8,5,1885,968,588,1,"press",1,"GW","Go",1,"win","Win",120,"2",5
"921","EMPTY0216",5,6,7,8,5,1289,745,0,0,"no_press",0,"NGL","noGo",1,"neutral","Avoid",121,"2",8
"922","EMPTY0216",7,6,7,8,5,1554,916,1007,0,"press",1,"GAL","Go",1,"neutral","Avoid",122,"2",3
"923","EMPTY0216",6,6,7,8,5,2335,644,672,1,"press",1,"GW","Go",1,"win","Win",123,"2",6
"924","EMPTY0216",7,6,7,8,5,1491,710,730,0,"press",1,"GAL","Go",1,"neutral","Avoid",124,"2",4
"925","EMPTY0216",7,6,7,8,5,1885,701,611,0,"press",1,"GAL","Go",1,"neutral","Avoid",125,"2",5
"926","EMPTY0216",7,6,7,8,5,1825,602,512,-1,"press",1,"GAL","Go",1,"lose","Avoid",126,"2",6
"927","EMPTY0216",5,6,7,8,5,2818,592,0,0,"no_press",0,"NGL","noGo",1,"neutral","Avoid",127,"2",9
"928","EMPTY0216",7,6,7,8,5,1824,724,726,0,"press",1,"GAL","Go",1,"neutral","Avoid",128,"2",7
"929","EMPTY0216",6,6,7,8,5,1771,731,687,0,"press",1,"GW","Go",1,"neutral","Win",129,"2",7
"930","EMPTY0216",7,6,7,8,5,1368,841,1027,0,"press",1,"GAL","Go",1,"neutral","Avoid",130,"2",8
"931","EMPTY0216",7,6,7,8,5,2724,905,0,-1,"no_press",0,"GAL","Go",0,"lose","Avoid",131,"2",9
"932","EMPTY0216",8,6,7,8,5,1452,684,0,1,"no_press",0,"NGW","noGo",1,"win","Win",132,"2",7
"933","EMPTY0216",7,6,7,8,5,2464,864,913,0,"press",1,"GAL","Go",1,"neutral","Avoid",133,"2",10
"934","EMPTY0216",5,6,7,8,5,1773,929,0,0,"no_press",0,"NGL","noGo",1,"neutral","Avoid",134,"2",10
"935","EMPTY0216",5,6,7,8,5,2252,722,0,-1,"no_press",0,"NGL","noGo",1,"lose","Avoid",135,"2",11
"936","EMPTY0216",8,6,7,8,5,1861,712,1310,0,"press",1,"NGW","noGo",0,"neutral","Win",136,"2",8
"937","EMPTY0216",7,6,7,8,5,2041,942,671,-1,"press",1,"GAL","Go",1,"lose","Avoid",137,"2",11
"938","EMPTY0216",8,6,7,8,5,2034,753,540,0,"press",1,"NGW","noGo",0,"neutral","Win",138,"2",9
"939","EMPTY0216",5,6,7,8,5,2066,933,0,0,"no_press",0,"NGL","noGo",1,"neutral","Avoid",139,"2",12
"940","EMPTY0216",8,6,7,8,5,1537,864,724,0,"press",1,"NGW","noGo",0,"neutral","Win",140,"2",10
"941","EMPTY0216",6,6,7,8,5,1485,907,651,1,"press",1,"GW","Go",1,"win","Win",141,"2",8
"942","EMPTY0216",8,6,7,8,5,1338,721,708,1,"press",1,"NGW","noGo",0,"win","Win",142,"2",11
"943","EMPTY0216",6,6,7,8,5,2337,697,839,1,"press",1,"GW","Go",1,"win","Win",143,"2",9
"944","EMPTY0216",6,6,7,8,5,2615,984,935,1,"press",1,"GW","Go",1,"win","Win",144,"2",10
"945","EMPTY0216",8,6,7,8,5,1715,517,694,0,"press",1,"NGW","noGo",0,"neutral","Win",145,"2",12
"946","EMPTY0216",6,6,7,8,5,2745,829,619,1,"press",1,"GW","Go",1,"win","Win",146,"2",11
"947","EMPTY0216",8,6,7,8,5,2066,984,635,1,"press",1,"NGW","noGo",0,"win","Win",147,"2",13
"948","EMPTY0216",8,6,7,8,5,1671,705,0,1,"no_press",0,"NGW","noGo",1,"win","Win",148,"2",14
"949","EMPTY0216",8,6,7,8,5,2817,647,609,0,"press",1,"NGW","noGo",0,"neutral","Win",149,"2",15
"950","EMPTY0216",6,6,7,8,5,1511,924,598,1,"press",1,"GW","Go",1,"win","Win",150,"2",12
"951","EMPTY0216",7,6,7,8,5,2299,986,0,-1,"no_press",0,"GAL","Go",0,"lose","Avoid",151,"2",12
"952","EMPTY0216",5,6,7,8,5,1678,592,0,0,"no_press",0,"NGL","noGo",1,"neutral","Avoid",152,"2",13
"953","EMPTY0216",6,6,7,8,5,2129,630,643,1,"press",1,"GW","Go",1,"win","Win",153,"2",13
"954","EMPTY0216",5,6,7,8,5,1795,584,0,0,"no_press",0,"NGL","noGo",1,"neutral","Avoid",154,"2",14
"955","EMPTY0216",6,6,7,8,5,2930,560,477,0,"press",1,"GW","Go",1,"neutral","Win",155,"2",14
"956","EMPTY0216",7,6,7,8,5,1453,693,0,-1,"no_press",0,"GAL","Go",0,"lose","Avoid",156,"2",13
"957","EMPTY0216",5,6,7,8,5,2980,950,0,0,"no_press",0,"NGL","noGo",1,"neutral","Avoid",157,"2",15
"958","EMPTY0216",5,6,7,8,5,2206,808,430,0,"press",1,"NGL","noGo",0,"neutral","Avoid",158,"2",16
"959","EMPTY0216",5,6,7,8,5,1992,596,722,-1,"press",1,"NGL","noGo",0,"lose","Avoid",159,"2",17
"960","EMPTY0216",5,6,7,8,5,2524,874,0,-1,"no_press",0,"NGL","noGo",1,"lose","Avoid",160,"2",18
"961","EMPTY0216",7,6,7,8,5,1364,870,750,0,"press",1,"GAL","Go",1,"neutral","Avoid",161,"2",14
"962","EMPTY0216",8,6,7,8,5,1330,875,600,1,"press",1,"NGW","noGo",0,"win","Win",162,"2",16
"963","EMPTY0216",8,6,7,8,5,2615,884,659,0,"press",1,"NGW","noGo",0,"neutral","Win",163,"2",17
"964","EMPTY0216",5,6,7,8,5,2323,947,0,0,"no_press",0,"NGL","noGo",1,"neutral","Avoid",164,"2",19
"965","EMPTY0216",6,6,7,8,5,2650,905,513,1,"press",1,"GW","Go",1,"win","Win",165,"2",15
"966","EMPTY0216",6,6,7,8,5,1942,995,506,1,"press",1,"GW","Go",1,"win","Win",166,"2",16
"967","EMPTY0216",8,6,7,8,5,2836,932,914,1,"press",1,"NGW","noGo",0,"win","Win",167,"2",18
"968","EMPTY0216",8,6,7,8,5,1753,632,0,1,"no_press",0,"NGW","noGo",1,"win","Win",168,"2",19
"969","EMPTY0216",8,6,7,8,5,1505,811,820,1,"press",1,"NGW","noGo",0,"win","Win",169,"2",20
"970","EMPTY0216",8,6,7,8,5,1423,597,0,1,"no_press",0,"NGW","noGo",1,"win","Win",170,"2",21
"971","EMPTY0216",7,6,7,8,5,1729,955,497,0,"press",1,"GAL","Go",1,"neutral","Avoid",171,"2",15
"972","EMPTY0216",7,6,7,8,5,2588,980,974,0,"press",1,"GAL","Go",1,"neutral","Avoid",172,"2",16
"973","EMPTY0216",8,6,7,8,5,1990,619,375,0,"press",1,"NGW","noGo",0,"neutral","Win",173,"2",22
"974","EMPTY0216",7,6,7,8,5,3099,939,506,-1,"press",1,"GAL","Go",1,"lose","Avoid",174,"2",17
"975","EMPTY0216",5,6,7,8,5,2964,742,0,0,"no_press",0,"NGL","noGo",1,"neutral","Avoid",175,"2",20
"976","EMPTY0216",6,6,7,8,5,2018,871,588,1,"press",1,"GW","Go",1,"win","Win",176,"2",17
"977","EMPTY0216",7,6,7,8,5,1344,827,707,-1,"press",1,"GAL","Go",1,"lose","Avoid",177,"2",18
"978","EMPTY0216",8,6,7,8,5,1555,956,517,0,"press",1,"NGW","noGo",0,"neutral","Win",178,"2",23
"979","EMPTY0216",6,6,7,8,5,2579,705,684,0,"press",1,"GW","Go",1,"neutral","Win",179,"2",18
"980","EMPTY0216",5,6,7,8,5,1504,919,0,0,"no_press",0,"NGL","noGo",1,"neutral","Avoid",180,"2",21
"981","EMPTY0216",6,6,7,8,5,1848,818,842,1,"press",1,"GW","Go",1,"win","Win",181,"2",19
"982","EMPTY0216",6,6,7,8,5,1702,545,768,1,"press",1,"GW","Go",1,"win","Win",182,"2",20
"983","EMPTY0216",6,6,7,8,5,1204,947,746,1,"press",1,"GW","Go",1,"win","Win",183,"2",21
"984","EMPTY0216",5,6,7,8,5,1959,526,0,0,"no_press",0,"NGL","noGo",1,"neutral","Avoid",184,"2",22
"985","EMPTY0216",5,6,7,8,5,2336,533,385,-1,"press",1,"NGL","noGo",0,"lose","Avoid",185,"2",23
"986","EMPTY0216",7,6,7,8,5,2319,644,921,0,"press",1,"GAL","Go",1,"neutral","Avoid",186,"2",19
"987","EMPTY0216",7,6,7,8,5,2315,784,1522,-1,"press",1,"GAL","Go",1,"lose","Avoid",187,"2",20
"988","EMPTY0216",8,6,7,8,5,2218,740,642,0,"press",1,"NGW","noGo",0,"neutral","Win",188,"2",24
"989","EMPTY0216",7,6,7,8,5,2518,859,0,-1,"no_press",0,"GAL","Go",0,"lose","Avoid",189,"2",21
"990","EMPTY0216",6,6,7,8,5,1693,746,523,0,"press",1,"GW","Go",1,"neutral","Win",190,"2",22
"991","EMPTY0216",7,6,7,8,5,1942,768,715,0,"press",1,"GAL","Go",1,"neutral","Avoid",191,"2",22
"992","EMPTY0216",7,6,7,8,5,2330,990,599,0,"press",1,"GAL","Go",1,"neutral","Avoid",192,"2",23
"993","EMPTY0216",6,6,7,8,5,2125,672,751,1,"press",1,"GW","Go",1,"win","Win",193,"2",23
"994","EMPTY0216",5,6,7,8,5,2359,649,0,0,"no_press",0,"NGL","noGo",1,"neutral","Avoid",194,"2",24
"995","EMPTY0216",7,6,7,8,5,1785,804,1193,0,"press",1,"GAL","Go",1,"neutral","Avoid",195,"2",24
"996","EMPTY0216",7,6,7,8,5,2942,640,557,0,"press",1,"GAL","Go",1,"neutral","Avoid",196,"2",25
"997","EMPTY0216",8,6,7,8,5,2257,886,604,0,"press",1,"NGW","noGo",0,"neutral","Win",197,"2",25
"998","EMPTY0216",6,6,7,8,5,2700,774,1060,1,"press",1,"GW","Go",1,"win","Win",198,"2",24
"999","EMPTY0216",6,6,7,8,5,2237,968,614,1,"press",1,"GW","Go",1,"win","Win",199,"2",25
"1000","EMPTY0216",5,6,7,8,5,1000,680,0,0,"no_press",0,"NGL","noGo",1,"neutral","Avoid",200,"2",25
"1001","EMPTY0216",9,12,11,10,9,2298,628,1194,-1,"press",1,"NGL","noGo",0,"lose","Avoid",201,"3",1
"1002","EMPTY0216",9,12,11,10,9,1196,641,0,0,"no_press",0,"NGL","noGo",1,"neutral","Avoid",202,"3",2
"1003","EMPTY0216",11,12,11,10,9,2239,712,913,0,"press",1,"GAL","Go",1,"neutral","Avoid",203,"3",1
"1004","EMPTY0216",9,12,11,10,9,1288,783,0,0,"no_press",0,"NGL","noGo",1,"neutral","Avoid",204,"3",3
"1005","EMPTY0216",10,12,11,10,9,1289,558,885,0,"press",1,"NGW","noGo",0,"neutral","Win",205,"3",1
"1006","EMPTY0216",10,12,11,10,9,1847,705,0,0,"no_press",0,"NGW","noGo",1,"neutral","Win",206,"3",2
"1007","EMPTY0216",11,12,11,10,9,1938,910,779,0,"press",1,"GAL","Go",1,"neutral","Avoid",207,"3",2
"1008","EMPTY0216",12,12,11,10,9,2000,632,628,1,"press",1,"GW","Go",1,"win","Win",208,"3",1
"1009","EMPTY0216",11,12,11,10,9,1509,872,781,-1,"press",1,"GAL","Go",1,"lose","Avoid",209,"3",3
"1010","EMPTY0216",12,12,11,10,9,2169,828,664,1,"press",1,"GW","Go",1,"win","Win",210,"3",2
"1011","EMPTY0216",12,12,11,10,9,2019,760,690,0,"press",1,"GW","Go",1,"neutral","Win",211,"3",3
"1012","EMPTY0216",9,12,11,10,9,1847,871,0,0,"no_press",0,"NGL","noGo",1,"neutral","Avoid",212,"3",4
"1013","EMPTY0216",11,12,11,10,9,1630,988,478,-1,"press",1,"GAL","Go",1,"lose","Avoid",213,"3",4
"1014","EMPTY0216",9,12,11,10,9,2140,875,0,0,"no_press",0,"NGL","noGo",1,"neutral","Avoid",214,"3",5
"1015","EMPTY0216",10,12,11,10,9,1187,736,723,0,"press",1,"NGW","noGo",0,"neutral","Win",215,"3",3
"1016","EMPTY0216",10,12,11,10,9,1547,735,448,0,"press",1,"NGW","noGo",0,"neutral","Win",216,"3",4
"1017","EMPTY0216",11,12,11,10,9,2776,771,671,0,"press",1,"GAL","Go",1,"neutral","Avoid",217,"3",5
"1018","EMPTY0216",10,12,11,10,9,1666,514,0,0,"no_press",0,"NGW","noGo",1,"neutral","Win",218,"3",5
"1019","EMPTY0216",11,12,11,10,9,1922,545,0,-1,"no_press",0,"GAL","Go",0,"lose","Avoid",219,"3",6
"1020","EMPTY0216",9,12,11,10,9,2085,598,0,0,"no_press",0,"NGL","noGo",1,"neutral","Avoid",220,"3",6
"1021","EMPTY0216",12,12,11,10,9,1954,634,608,1,"press",1,"GW","Go",1,"win","Win",221,"3",4
"1022","EMPTY0216",10,12,11,10,9,1229,580,942,0,"press",1,"NGW","noGo",0,"neutral","Win",222,"3",6
"1023","EMPTY0216",12,12,11,10,9,1250,828,523,0,"press",1,"GW","Go",1,"neutral","Win",223,"3",5
"1024","EMPTY0216",12,12,11,10,9,1715,504,706,1,"press",1,"GW","Go",1,"win","Win",224,"3",6
"1025","EMPTY0216",10,12,11,10,9,2853,626,467,0,"press",1,"NGW","noGo",0,"neutral","Win",225,"3",7
"1026","EMPTY0216",9,12,11,10,9,2360,903,0,0,"no_press",0,"NGL","noGo",1,"neutral","Avoid",226,"3",7
"1027","EMPTY0216",11,12,11,10,9,2291,548,832,0,"press",1,"GAL","Go",1,"neutral","Avoid",227,"3",7
"1028","EMPTY0216",10,12,11,10,9,1479,752,578,0,"press",1,"NGW","noGo",0,"neutral","Win",228,"3",8
"1029","EMPTY0216",11,12,11,10,9,1787,943,614,-1,"press",1,"GAL","Go",1,"lose","Avoid",229,"3",8
"1030","EMPTY0216",12,12,11,10,9,1189,949,877,1,"press",1,"GW","Go",1,"win","Win",230,"3",7
"1031","EMPTY0216",11,12,11,10,9,1990,961,0,-1,"no_press",0,"GAL","Go",0,"lose","Avoid",231,"3",9
"1032","EMPTY0216",10,12,11,10,9,2478,558,626,1,"press",1,"NGW","noGo",0,"win","Win",232,"3",9
"1033","EMPTY0216",12,12,11,10,9,2664,852,540,1,"press",1,"GW","Go",1,"win","Win",233,"3",8
"1034","EMPTY0216",12,12,11,10,9,5000,724,538,0,"press",1,"GW","Go",1,"neutral","Win",234,"3",9
"1035","EMPTY0216",12,12,11,10,9,1655,734,545,1,"press",1,"GW","Go",1,"win","Win",235,"3",10
"1036","EMPTY0216",9,12,11,10,9,2057,756,0,0,"no_press",0,"NGL","noGo",1,"neutral","Avoid",236,"3",8
"1037","EMPTY0216",9,12,11,10,9,2540,980,0,-1,"no_press",0,"NGL","noGo",1,"lose","Avoid",237,"3",9
"1038","EMPTY0216",9,12,11,10,9,1964,735,0,0,"no_press",0,"NGL","noGo",1,"neutral","Avoid",238,"3",10
"1039","EMPTY0216",9,12,11,10,9,1939,653,0,0,"no_press",0,"NGL","noGo",1,"neutral","Avoid",239,"3",11
"1040","EMPTY0216",12,12,11,10,9,2038,941,1444,1,"press",1,"GW","Go",1,"win","Win",240,"3",11
"1041","EMPTY0216",12,12,11,10,9,2745,815,744,1,"press",1,"GW","Go",1,"win","Win",241,"3",12
"1042","EMPTY0216",12,12,11,10,9,1678,743,936,1,"press",1,"GW","Go",1,"win","Win",242,"3",13
"1043","EMPTY0216",10,12,11,10,9,1000,822,1048,0,"press",1,"NGW","noGo",0,"neutral","Win",243,"3",10
"1044","EMPTY0216",11,12,11,10,9,2166,604,0,-1,"no_press",0,"GAL","Go",0,"lose","Avoid",244,"3",10
"1045","EMPTY0216",9,12,11,10,9,2084,706,0,0,"no_press",0,"NGL","noGo",1,"neutral","Avoid",245,"3",12
"1046","EMPTY0216",10,12,11,10,9,2272,776,0,1,"no_press",0,"NGW","noGo",1,"win","Win",246,"3",11
"1047","EMPTY0216",9,12,11,10,9,1444,977,0,-1,"no_press",0,"NGL","noGo",1,"lose","Avoid",247,"3",13
"1048","EMPTY0216",12,12,11,10,9,2209,654,524,1,"press",1,"GW","Go",1,"win","Win",248,"3",14
"1049","EMPTY0216",10,12,11,10,9,2026,675,596,0,"press",1,"NGW","noGo",0,"neutral","Win",249,"3",12
