"","ID","stim_ID","GW","GAL","NGW","NGL","jitter1","jitter2","RT","outcomefeed","response","GNG","correct","win_lose_neutral","Cue","trial_number","block","per_20trials","per_5trials"
"1","DBGE0324",1,2,3,4,1,2650,773,587,-1,"press","noGo",0,"lose","NGL",1,"1","a.20",1
"2","DBGE0324",3,2,3,4,1,1485,986,1415,0,"press","Go",1,"neutral","GAL",2,"1","a.20",1
"3","DBGE0324",2,2,3,4,1,1588,864,884,1,"press","Go",1,"win","GW",3,"1","a.20",1
"4","DBGE0324",4,2,3,4,1,2794,548,0,1,"no_press","noGo",1,"win","NGW",4,"1","a.20",1
"5","DBGE0324",3,2,3,4,1,3515,879,676,-1,"press","Go",1,"lose","GAL",5,"1","a.20",1
"6","DBGE0324",4,2,3,4,1,3445,951,0,1,"no_press","noGo",1,"win","NGW",6,"1","a.20",2
"7","DBGE0324",2,2,3,4,1,1847,771,1136,0,"press","Go",1,"neutral","GW",7,"1","a.20",2
"8","DBGE0324",1,2,3,4,1,2080,574,0,0,"no_press","noGo",1,"neutral","NGL",8,"1","a.20",2
"9","DBGE0324",4,2,3,4,1,1932,923,0,1,"no_press","noGo",1,"win","NGW",9,"1","a.20",2
"10","DBGE0324",4,2,3,4,1,1509,955,0,1,"no_press","noGo",1,"win","NGW",10,"1","a.20",2
"11","DBGE0324",4,2,3,4,1,2464,816,0,0,"no_press","noGo",1,"neutral","NGW",11,"1","a.20",3
"12","DBGE0324",1,2,3,4,1,2018,678,0,0,"no_press","noGo",1,"neutral","NGL",12,"1","a.20",3
"13","DBGE0324",1,2,3,4,1,2506,531,0,0,"no_press","noGo",1,"neutral","NGL",13,"1","a.20",3
"14","DBGE0324",3,2,3,4,1,3128,734,1363,0,"press","Go",1,"neutral","GAL",14,"1","a.20",3
"15","DBGE0324",4,2,3,4,1,2615,721,0,0,"no_press","noGo",1,"neutral","NGW",15,"1","a.20",3
"16","DBGE0324",1,2,3,4,1,1847,552,0,0,"no_press","noGo",1,"neutral","NGL",16,"1","a.20",4
"17","DBGE0324",4,2,3,4,1,1266,650,0,1,"no_press","noGo",1,"win","NGW",17,"1","a.20",4
"18","DBGE0324",2,2,3,4,1,1879,762,934,1,"press","Go",1,"win","GW",18,"1","a.20",4
"19","DBGE0324",3,2,3,4,1,1467,619,0,-1,"no_press","Go",0,"lose","GAL",19,"1","a.20",4
"20","DBGE0324",1,2,3,4,1,1368,533,0,0,"no_press","noGo",1,"neutral","NGL",20,"1","a.20",4
"21","DBGE0324",2,2,3,4,1,1196,981,713,0,"press","Go",1,"neutral","GW",21,"1","b.40",5
"22","DBGE0324",2,2,3,4,1,2785,846,704,1,"press","Go",1,"win","GW",22,"1","b.40",5
"23","DBGE0324",3,2,3,4,1,2169,834,569,-1,"press","Go",1,"lose","GAL",23,"1","b.40",5
"24","DBGE0324",1,2,3,4,1,1967,509,0,0,"no_press","noGo",1,"neutral","NGL",24,"1","b.40",5
"25","DBGE0324",4,2,3,4,1,1939,796,0,0,"no_press","noGo",1,"neutral","NGW",25,"1","b.40",5
"26","DBGE0324",4,2,3,4,1,1503,699,0,1,"no_press","noGo",1,"win","NGW",26,"1","b.40",6
"27","DBGE0324",1,2,3,4,1,1189,939,0,-1,"no_press","noGo",1,"lose","NGL",27,"1","b.40",6
"28","DBGE0324",2,2,3,4,1,1494,736,1486,1,"press","Go",1,"win","GW",28,"1","b.40",6
"29","DBGE0324",3,2,3,4,1,2066,681,813,-1,"press","Go",1,"lose","GAL",29,"1","b.40",6
"30","DBGE0324",1,2,3,4,1,1965,870,0,0,"no_press","noGo",1,"neutral","NGL",30,"1","b.40",6
"31","DBGE0324",1,2,3,4,1,2298,995,0,0,"no_press","noGo",1,"neutral","NGL",31,"1","b.40",7
"32","DBGE0324",3,2,3,4,1,1504,746,0,-1,"no_press","Go",0,"lose","GAL",32,"1","b.40",7
"33","DBGE0324",3,2,3,4,1,1693,560,749,0,"press","Go",1,"neutral","GAL",33,"1","b.40",7
"34","DBGE0324",1,2,3,4,1,1329,754,0,0,"no_press","noGo",1,"neutral","NGL",34,"1","b.40",7
"35","DBGE0324",3,2,3,4,1,2493,586,773,0,"press","Go",1,"neutral","GAL",35,"1","b.40",7
"36","DBGE0324",2,2,3,4,1,1992,544,512,0,"press","Go",1,"neutral","GW",36,"1","b.40",8
"37","DBGE0324",3,2,3,4,1,2018,952,525,0,"press","Go",1,"neutral","GAL",37,"1","b.40",8
"38","DBGE0324",2,2,3,4,1,2980,634,480,1,"press","Go",1,"win","GW",38,"1","b.40",8
"39","DBGE0324",3,2,3,4,1,2776,640,536,0,"press","Go",1,"neutral","GAL",39,"1","b.40",8
"40","DBGE0324",2,2,3,4,1,2034,766,480,1,"press","Go",1,"win","GW",40,"1","b.40",8
"41","DBGE0324",3,2,3,4,1,1788,540,516,0,"press","Go",1,"neutral","GAL",41,"1","c.60",9
"42","DBGE0324",3,2,3,4,1,2001,785,476,0,"press","Go",1,"neutral","GAL",42,"1","c.60",9
"43","DBGE0324",2,2,3,4,1,2198,695,550,1,"press","Go",1,"win","GW",43,"1","c.60",9
"44","DBGE0324",1,2,3,4,1,1678,661,0,0,"no_press","noGo",1,"neutral","NGL",44,"1","c.60",9
"45","DBGE0324",1,2,3,4,1,2359,651,0,0,"no_press","noGo",1,"neutral","NGL",45,"1","c.60",9
"46","DBGE0324",4,2,3,4,1,2402,679,0,1,"no_press","noGo",1,"win","NGW",46,"1","c.60",10
"47","DBGE0324",1,2,3,4,1,1608,662,0,-1,"no_press","noGo",1,"lose","NGL",47,"1","c.60",10
"48","DBGE0324",4,2,3,4,1,2044,975,0,1,"no_press","noGo",1,"win","NGW",48,"1","c.60",10
"49","DBGE0324",3,2,3,4,1,3344,529,605,0,"press","Go",1,"neutral","GAL",49,"1","c.60",10
"50","DBGE0324",2,2,3,4,1,1182,719,1084,1,"press","Go",1,"win","GW",50,"1","c.60",10
"51","DBGE0324",3,2,3,4,1,2019,550,575,0,"press","Go",1,"neutral","GAL",51,"1","c.60",11
"52","DBGE0324",1,2,3,4,1,1204,813,0,-1,"no_press","noGo",1,"lose","NGL",52,"1","c.60",11
"53","DBGE0324",1,2,3,4,1,2097,572,0,0,"no_press","noGo",1,"neutral","NGL",53,"1","c.60",11
"54","DBGE0324",4,2,3,4,1,2029,609,0,1,"no_press","noGo",1,"win","NGW",54,"1","c.60",11
"55","DBGE0324",4,2,3,4,1,1810,952,0,0,"no_press","noGo",1,"neutral","NGW",55,"1","c.60",11
"56","DBGE0324",3,2,3,4,1,2323,928,747,0,"press","Go",1,"neutral","GAL",56,"1","c.60",12
"57","DBGE0324",3,2,3,4,1,1885,585,610,0,"press","Go",1,"neutral","GAL",57,"1","c.60",12
"58","DBGE0324",4,2,3,4,1,2700,865,0,1,"no_press","noGo",1,"win","NGW",58,"1","c.60",12
"59","DBGE0324",2,2,3,4,1,1743,965,666,1,"press","Go",1,"win","GW",59,"1","c.60",12
"60","DBGE0324",2,2,3,4,1,2467,641,607,1,"press","Go",1,"win","GW",60,"1","c.60",12
"61","DBGE0324",1,2,3,4,1,2615,882,0,0,"no_press","noGo",1,"neutral","NGL",61,"1","d.80",13
"62","DBGE0324",3,2,3,4,1,1495,822,942,0,"press","Go",1,"neutral","GAL",62,"1","d.80",13
"63","DBGE0324",4,2,3,4,1,2253,947,0,1,"no_press","noGo",1,"win","NGW",63,"1","d.80",13
"64","DBGE0324",3,2,3,4,1,1709,921,983,0,"press","Go",1,"neutral","GAL",64,"1","d.80",13
"65","DBGE0324",1,2,3,4,1,1547,909,0,0,"no_press","noGo",1,"neutral","NGL",65,"1","d.80",13
"66","DBGE0324",2,2,3,4,1,2853,712,543,1,"press","Go",1,"win","GW",66,"1","d.80",14
"67","DBGE0324",1,2,3,4,1,1951,718,0,-1,"no_press","noGo",1,"lose","NGL",67,"1","d.80",14
"68","DBGE0324",4,2,3,4,1,3560,926,0,1,"no_press","noGo",1,"win","NGW",68,"1","d.80",14
"69","DBGE0324",1,2,3,4,1,1463,622,0,0,"no_press","noGo",1,"neutral","NGL",69,"1","d.80",14
"70","DBGE0324",2,2,3,4,1,1403,663,573,1,"press","Go",1,"win","GW",70,"1","d.80",14
"71","DBGE0324",4,2,3,4,1,2336,508,0,1,"no_press","noGo",1,"win","NGW",71,"1","d.80",15
"72","DBGE0324",3,2,3,4,1,2887,701,616,0,"press","Go",1,"neutral","GAL",72,"1","d.80",15
"73","DBGE0324",2,2,3,4,1,2234,626,702,1,"press","Go",1,"win","GW",73,"1","d.80",15
"74","DBGE0324",4,2,3,4,1,2241,992,0,1,"no_press","noGo",1,"win","NGW",74,"1","d.80",15
"75","DBGE0324",3,2,3,4,1,1943,939,564,-1,"press","Go",1,"lose","GAL",75,"1","d.80",15
"76","DBGE0324",3,2,3,4,1,1479,605,618,0,"press","Go",1,"neutral","GAL",76,"1","d.80",16
"77","DBGE0324",4,2,3,4,1,2873,564,0,1,"no_press","noGo",1,"win","NGW",77,"1","d.80",16
"78","DBGE0324",4,2,3,4,1,2455,944,0,1,"no_press","noGo",1,"win","NGW",78,"1","d.80",16
"79","DBGE0324",1,2,3,4,1,2335,756,0,0,"no_press","noGo",1,"neutral","NGL",79,"1","d.80",16
"80","DBGE0324",2,2,3,4,1,1000,829,601,1,"press","Go",1,"win","GW",80,"1","d.80",16
"81","DBGE0324",2,2,3,4,1,1932,791,612,1,"press","Go",1,"win","GW",81,"1","e.100",17
"82","DBGE0324",2,2,3,4,1,1187,945,568,0,"press","Go",1,"neutral","GW",82,"1","e.100",17
"83","DBGE0324",3,2,3,4,1,1888,922,814,0,"press","Go",1,"neutral","GAL",83,"1","e.100",17
"84","DBGE0324",4,2,3,4,1,3016,624,0,1,"no_press","noGo",1,"win","NGW",84,"1","e.100",17
"85","DBGE0324",2,2,3,4,1,1000,682,806,1,"press","Go",1,"win","GW",85,"1","e.100",17
"86","DBGE0324",4,2,3,4,1,1693,754,0,1,"no_press","noGo",1,"win","NGW",86,"1","e.100",18
"87","DBGE0324",1,2,3,4,1,1524,944,0,0,"no_press","noGo",1,"neutral","NGL",87,"1","e.100",18
"88","DBGE0324",1,2,3,4,1,2538,524,0,0,"no_press","noGo",1,"neutral","NGL",88,"1","e.100",18
"89","DBGE0324",3,2,3,4,1,2086,654,745,-1,"press","Go",1,"lose","GAL",89,"1","e.100",18
"90","DBGE0324",2,2,3,4,1,2306,756,592,1,"press","Go",1,"win","GW",90,"1","e.100",18
"91","DBGE0324",2,2,3,4,1,2513,830,605,1,"press","Go",1,"win","GW",91,"1","e.100",19
"92","DBGE0324",4,2,3,4,1,2184,854,0,1,"no_press","noGo",1,"win","NGW",92,"1","e.100",19
"93","DBGE0324",1,2,3,4,1,2319,818,0,0,"no_press","noGo",1,"neutral","NGL",93,"1","e.100",19
"94","DBGE0324",3,2,3,4,1,2369,743,694,0,"press","Go",1,"neutral","GAL",94,"1","e.100",19
"95","DBGE0324",2,2,3,4,1,2367,585,560,1,"press","Go",1,"win","GW",95,"1","e.100",19
"96","DBGE0324",4,2,3,4,1,2145,570,0,0,"no_press","noGo",1,"neutral","NGW",96,"1","e.100",20
"97","DBGE0324",2,2,3,4,1,2344,972,480,1,"press","Go",1,"win","GW",97,"1","e.100",20
"98","DBGE0324",2,2,3,4,1,2014,557,530,0,"press","Go",1,"neutral","GW",98,"1","e.100",20
"99","DBGE0324",4,2,3,4,1,2080,922,0,1,"no_press","noGo",1,"win","NGW",99,"1","e.100",20
"100","DBGE0324",1,2,3,4,1,2041,768,0,-1,"no_press","noGo",1,"lose","NGL",100,"1","e.100",20
"101","DBGE0324",5,6,5,8,7,2761,749,441,0,"press","Go",1,"neutral","GAL",101,"2","a.20",21
"102","DBGE0324",8,6,5,8,7,2040,769,924,0,"press","noGo",0,"neutral","NGW",102,"2","a.20",21
"103","DBGE0324",7,6,5,8,7,2226,993,637,0,"press","noGo",0,"neutral","NGL",103,"2","a.20",21
"104","DBGE0324",7,6,5,8,7,1678,665,743,-1,"press","noGo",0,"lose","NGL",104,"2","a.20",21
"105","DBGE0324",6,6,5,8,7,1964,660,957,1,"press","Go",1,"win","GW",105,"2","a.20",21
"106","DBGE0324",5,6,5,8,7,1536,624,778,-1,"press","Go",1,"lose","GAL",106,"2","a.20",22
"107","DBGE0324",8,6,5,8,7,1578,968,0,1,"no_press","noGo",1,"win","NGW",107,"2","a.20",22
"108","DBGE0324",5,6,5,8,7,1771,514,0,-1,"no_press","Go",0,"lose","GAL",108,"2","a.20",22
"109","DBGE0324",7,6,5,8,7,1289,804,0,0,"no_press","noGo",1,"neutral","NGL",109,"2","a.20",22
"110","DBGE0324",5,6,5,8,7,1407,953,0,0,"no_press","Go",0,"neutral","GAL",110,"2","a.20",22
"111","DBGE0324",6,6,5,8,7,2588,957,657,1,"press","Go",1,"win","GW",111,"2","a.20",23
"112","DBGE0324",7,6,5,8,7,2907,965,0,0,"no_press","noGo",1,"neutral","NGL",112,"2","a.20",23
"113","DBGE0324",6,6,5,8,7,1908,645,474,1,"press","Go",1,"win","GW",113,"2","a.20",23
"114","DBGE0324",5,6,5,8,7,2184,746,0,-1,"no_press","Go",0,"lose","GAL",114,"2","a.20",23
"115","DBGE0324",7,6,5,8,7,2836,746,0,0,"no_press","noGo",1,"neutral","NGL",115,"2","a.20",23
"116","DBGE0324",6,6,5,8,7,2087,660,735,1,"press","Go",1,"win","GW",116,"2","a.20",24
"117","DBGE0324",8,6,5,8,7,2464,854,0,0,"no_press","noGo",1,"neutral","NGW",117,"2","a.20",24
"118","DBGE0324",8,6,5,8,7,1936,536,0,1,"no_press","noGo",1,"win","NGW",118,"2","a.20",24
"119","DBGE0324",5,6,5,8,7,3876,514,0,-1,"no_press","Go",0,"lose","GAL",119,"2","a.20",24
"120","DBGE0324",6,6,5,8,7,1456,694,1020,0,"press","Go",1,"neutral","GW",120,"2","a.20",24
"121","DBGE0324",7,6,5,8,7,1453,690,0,0,"no_press","noGo",1,"neutral","NGL",121,"2","b.40",25
"122","DBGE0324",5,6,5,8,7,1288,561,0,-1,"no_press","Go",0,"lose","GAL",122,"2","b.40",25
"123","DBGE0324",8,6,5,8,7,1938,779,0,1,"no_press","noGo",1,"win","NGW",123,"2","b.40",25
"124","DBGE0324",5,6,5,8,7,2000,859,0,-1,"no_press","Go",0,"lose","GAL",124,"2","b.40",25
"125","DBGE0324",5,6,5,8,7,1787,700,815,0,"press","Go",1,"neutral","GAL",125,"2","b.40",25
"126","DBGE0324",8,6,5,8,7,2164,997,0,0,"no_press","noGo",1,"neutral","NGW",126,"2","b.40",26
"127","DBGE0324",8,6,5,8,7,1779,931,0,1,"no_press","noGo",1,"win","NGW",127,"2","b.40",26
"128","DBGE0324",7,6,5,8,7,1509,870,0,0,"no_press","noGo",1,"neutral","NGL",128,"2","b.40",26
"129","DBGE0324",5,6,5,8,7,2828,623,1033,0,"press","Go",1,"neutral","GAL",129,"2","b.40",26
"130","DBGE0324",8,6,5,8,7,1546,763,0,1,"no_press","noGo",1,"win","NGW",130,"2","b.40",26
"131","DBGE0324",8,6,5,8,7,2274,859,0,1,"no_press","noGo",1,"win","NGW",131,"2","b.40",27
"132","DBGE0324",8,6,5,8,7,2262,909,0,1,"no_press","noGo",1,"win","NGW",132,"2","b.40",27
"133","DBGE0324",5,6,5,8,7,1773,626,998,0,"press","Go",1,"neutral","GAL",133,"2","b.40",27
"134","DBGE0324",8,6,5,8,7,1759,613,0,1,"no_press","noGo",1,"win","NGW",134,"2","b.40",27
"135","DBGE0324",8,6,5,8,7,2645,715,0,1,"no_press","noGo",1,"win","NGW",135,"2","b.40",27
"136","DBGE0324",5,6,5,8,7,1806,820,734,0,"press","Go",1,"neutral","GAL",136,"2","b.40",28
"137","DBGE0324",5,6,5,8,7,2254,938,760,0,"press","Go",1,"neutral","GAL",137,"2","b.40",28
"138","DBGE0324",5,6,5,8,7,2031,574,600,0,"press","Go",1,"neutral","GAL",138,"2","b.40",28
"139","DBGE0324",6,6,5,8,7,1479,984,736,1,"press","Go",1,"win","GW",139,"2","b.40",28
"140","DBGE0324",7,6,5,8,7,1959,673,0,-1,"no_press","noGo",1,"lose","NGL",140,"2","b.40",28
"141","DBGE0324",8,6,5,8,7,1432,808,0,1,"no_press","noGo",1,"win","NGW",141,"2","c.60",29
"142","DBGE0324",7,6,5,8,7,1861,743,0,0,"no_press","noGo",1,"neutral","NGL",142,"2","c.60",29
"143","DBGE0324",5,6,5,8,7,2609,686,642,-1,"press","Go",1,"lose","GAL",143,"2","c.60",29
"144","DBGE0324",6,6,5,8,7,2930,831,1011,1,"press","Go",1,"win","GW",144,"2","c.60",29
"145","DBGE0324",7,6,5,8,7,1772,650,0,0,"no_press","noGo",1,"neutral","NGL",145,"2","c.60",29
"146","DBGE0324",5,6,5,8,7,1385,784,798,0,"press","Go",1,"neutral","GAL",146,"2","c.60",30
"147","DBGE0324",8,6,5,8,7,1206,835,0,1,"no_press","noGo",1,"win","NGW",147,"2","c.60",30
"148","DBGE0324",6,6,5,8,7,1483,845,612,0,"press","Go",1,"neutral","GW",148,"2","c.60",30
"149","DBGE0324",5,6,5,8,7,2692,606,851,0,"press","Go",1,"neutral","GAL",149,"2","c.60",30
"150","DBGE0324",6,6,5,8,7,1249,729,782,1,"press","Go",1,"win","GW",150,"2","c.60",30
"151","DBGE0324",6,6,5,8,7,1505,795,686,1,"press","Go",1,"win","GW",151,"2","c.60",31
"152","DBGE0324",6,6,5,8,7,2695,512,590,1,"press","Go",1,"win","GW",152,"2","c.60",31
"153","DBGE0324",7,6,5,8,7,1354,566,0,0,"no_press","noGo",1,"neutral","NGL",153,"2","c.60",31
"154","DBGE0324",6,6,5,8,7,1842,772,877,1,"press","Go",1,"win","GW",154,"2","c.60",31
"155","DBGE0324",5,6,5,8,7,1842,831,449,0,"press","Go",1,"neutral","GAL",155,"2","c.60",31
"156","DBGE0324",6,6,5,8,7,1630,993,712,1,"press","Go",1,"win","GW",156,"2","c.60",32
"157","DBGE0324",5,6,5,8,7,1267,632,638,-1,"press","Go",1,"lose","GAL",157,"2","c.60",32
"158","DBGE0324",5,6,5,8,7,1864,549,435,0,"press","Go",1,"neutral","GAL",158,"2","c.60",32
"159","DBGE0324",7,6,5,8,7,1198,924,0,0,"no_press","noGo",1,"neutral","NGL",159,"2","c.60",32
"160","DBGE0324",6,6,5,8,7,1504,510,614,1,"press","Go",1,"win","GW",160,"2","c.60",32
"161","DBGE0324",8,6,5,8,7,1746,960,0,1,"no_press","noGo",1,"win","NGW",161,"2","d.80",33
"162","DBGE0324",7,6,5,8,7,2224,742,0,0,"no_press","noGo",1,"neutral","NGL",162,"2","d.80",33
"163","DBGE0324",8,6,5,8,7,2817,607,0,1,"no_press","noGo",1,"win","NGW",163,"2","d.80",33
"164","DBGE0324",7,6,5,8,7,1785,742,0,0,"no_press","noGo",1,"neutral","NGL",164,"2","d.80",33
"165","DBGE0324",5,6,5,8,7,2528,549,680,-1,"press","Go",1,"lose","GAL",165,"2","d.80",33
"166","DBGE0324",6,6,5,8,7,1666,536,655,1,"press","Go",1,"win","GW",166,"2","d.80",34
"167","DBGE0324",5,6,5,8,7,1966,649,657,0,"press","Go",1,"neutral","GAL",167,"2","d.80",34
"168","DBGE0324",6,6,5,8,7,1942,677,646,1,"press","Go",1,"win","GW",168,"2","d.80",34
"169","DBGE0324",7,6,5,8,7,2074,557,0,-1,"no_press","noGo",1,"lose","NGL",169,"2","d.80",34
"170","DBGE0324",8,6,5,8,7,1344,764,0,1,"no_press","noGo",1,"win","NGW",170,"2","d.80",34
"171","DBGE0324",6,6,5,8,7,1592,758,1034,1,"press","Go",1,"win","GW",171,"2","d.80",35
"172","DBGE0324",8,6,5,8,7,3412,563,0,1,"no_press","noGo",1,"win","NGW",172,"2","d.80",35
"173","DBGE0324",6,6,5,8,7,2272,905,957,1,"press","Go",1,"win","GW",173,"2","d.80",35
"174","DBGE0324",6,6,5,8,7,1715,849,613,1,"press","Go",1,"win","GW",174,"2","d.80",35
"175","DBGE0324",6,6,5,8,7,3279,564,571,0,"press","Go",1,"neutral","GW",175,"2","d.80",35
"176","DBGE0324",6,6,5,8,7,2388,706,693,1,"press","Go",1,"win","GW",176,"2","d.80",36
"177","DBGE0324",7,6,5,8,7,2381,844,0,0,"no_press","noGo",1,"neutral","NGL",177,"2","d.80",36
"178","DBGE0324",7,6,5,8,7,2032,744,0,0,"no_press","noGo",1,"neutral","NGL",178,"2","d.80",36
"179","DBGE0324",6,6,5,8,7,1826,813,627,0,"press","Go",1,"neutral","GW",179,"2","d.80",36
"180","DBGE0324",8,6,5,8,7,2448,895,0,1,"no_press","noGo",1,"win","NGW",180,"2","d.80",36
"181","DBGE0324",6,6,5,8,7,2257,972,1150,0,"press","Go",1,"neutral","GW",181,"2","e.100",37
"182","DBGE0324",7,6,5,8,7,3626,901,0,0,"no_press","noGo",1,"neutral","NGL",182,"2","e.100",37
"183","DBGE0324",8,6,5,8,7,2107,566,0,0,"no_press","noGo",1,"neutral","NGW",183,"2","e.100",37
"184","DBGE0324",5,6,5,8,7,2287,935,631,0,"press","Go",1,"neutral","GAL",184,"2","e.100",37
"185","DBGE0324",8,6,5,8,7,1537,760,0,1,"no_press","noGo",1,"win","NGW",185,"2","e.100",37
"186","DBGE0324",7,6,5,8,7,1457,573,0,0,"no_press","noGo",1,"neutral","NGL",186,"2","e.100",38
"187","DBGE0324",7,6,5,8,7,1869,502,0,-1,"no_press","noGo",1,"lose","NGL",187,"2","e.100",38
"188","DBGE0324",7,6,5,8,7,1318,669,0,0,"no_press","noGo",1,"neutral","NGL",188,"2","e.100",38
"189","DBGE0324",8,6,5,8,7,2998,964,0,0,"no_press","noGo",1,"neutral","NGW",189,"2","e.100",38
"190","DBGE0324",5,6,5,8,7,1729,853,622,0,"press","Go",1,"neutral","GAL",190,"2","e.100",38
"191","DBGE0324",7,6,5,8,7,1824,642,0,0,"no_press","noGo",1,"neutral","NGL",191,"2","e.100",39
"192","DBGE0324",8,6,5,8,7,2664,551,0,1,"no_press","noGo",1,"win","NGW",192,"2","e.100",39
"193","DBGE0324",6,6,5,8,7,1635,668,461,1,"press","Go",1,"win","GW",193,"2","e.100",39
"194","DBGE0324",7,6,5,8,7,2247,789,0,0,"no_press","noGo",1,"neutral","NGL",194,"2","e.100",39
"195","DBGE0324",8,6,5,8,7,1948,886,0,1,"no_press","noGo",1,"win","NGW",195,"2","e.100",39
"196","DBGE0324",5,6,5,8,7,1544,766,676,0,"press","Go",1,"neutral","GAL",196,"2","e.100",40
"197","DBGE0324",7,6,5,8,7,1855,785,0,-1,"no_press","noGo",1,"lose","NGL",197,"2","e.100",40
"198","DBGE0324",7,6,5,8,7,1229,504,0,0,"no_press","noGo",1,"neutral","NGL",198,"2","e.100",40
"199","DBGE0324",8,6,5,8,7,1289,569,0,0,"no_press","noGo",1,"neutral","NGW",199,"2","e.100",40
"200","DBGE0324",6,6,5,8,7,2548,752,767,1,"press","Go",1,"win","GW",200,"2","e.100",40
"201","DBGE0324",9,12,9,10,11,1238,871,796,0,"press","Go",1,"neutral","GAL",201,"3","a.20",41
"202","DBGE0324",10,12,9,10,11,2540,505,641,0,"press","noGo",0,"neutral","NGW",202,"3","a.20",41
"203","DBGE0324",11,12,9,10,11,1802,952,495,-1,"press","noGo",0,"lose","NGL",203,"3","a.20",41
"204","DBGE0324",11,12,9,10,11,2122,804,1006,-1,"press","noGo",0,"lose","NGL",204,"3","a.20",41
"205","DBGE0324",11,12,9,10,11,2601,779,0,0,"no_press","noGo",1,"neutral","NGL",205,"3","a.20",41
"206","DBGE0324",10,12,9,10,11,1452,969,954,1,"press","noGo",0,"win","NGW",206,"3","a.20",42
"207","DBGE0324",9,12,9,10,11,2084,757,826,0,"press","Go",1,"neutral","GAL",207,"3","a.20",42
"208","DBGE0324",9,12,9,10,11,1807,908,716,-1,"press","Go",1,"lose","GAL",208,"3","a.20",42
"209","DBGE0324",10,12,9,10,11,2019,823,719,0,"press","noGo",0,"neutral","NGW",209,"3","a.20",42
"210","DBGE0324",12,12,9,10,11,1845,749,0,0,"no_press","Go",0,"neutral","GW",210,"3","a.20",42
"211","DBGE0324",11,12,9,10,11,1678,886,0,0,"no_press","noGo",1,"neutral","NGL",211,"3","a.20",43
"212","DBGE0324",9,12,9,10,11,2571,829,808,-1,"press","Go",1,"lose","GAL",212,"3","a.20",43
"213","DBGE0324",10,12,9,10,11,2719,709,571,0,"press","noGo",0,"neutral","NGW",213,"3","a.20",43
"214","DBGE0324",9,12,9,10,11,2026,659,606,0,"press","Go",1,"neutral","GAL",214,"3","a.20",43
"215","DBGE0324",11,12,9,10,11,1000,949,0,0,"no_press","noGo",1,"neutral","NGL",215,"3","a.20",43
"216","DBGE0324",12,12,9,10,11,2283,573,0,1,"no_press","Go",0,"win","GW",216,"3","a.20",44
"217","DBGE0324",11,12,9,10,11,1990,783,0,0,"no_press","noGo",1,"neutral","NGL",217,"3","a.20",44
"218","DBGE0324",10,12,9,10,11,1484,723,624,1,"press","noGo",0,"win","NGW",218,"3","a.20",44
"219","DBGE0324",9,12,9,10,11,1825,852,761,0,"press","Go",1,"neutral","GAL",219,"3","a.20",44
"220","DBGE0324",9,12,9,10,11,2490,969,646,-1,"press","Go",1,"lose","GAL",220,"3","a.20",44
"221","DBGE0324",10,12,9,10,11,3029,975,614,0,"press","noGo",0,"neutral","NGW",221,"3","b.40",45
"222","DBGE0324",9,12,9,10,11,2547,630,543,0,"press","Go",1,"neutral","GAL",222,"3","b.40",45
"223","DBGE0324",9,12,9,10,11,1753,629,612,-1,"press","Go",1,"lose","GAL",223,"3","b.40",45
"224","DBGE0324",9,12,9,10,11,2038,663,591,0,"press","Go",1,"neutral","GAL",224,"3","b.40",45
"225","DBGE0324",10,12,9,10,11,2493,771,549,0,"press","noGo",0,"neutral","NGW",225,"3","b.40",45
"226","DBGE0324",12,12,9,10,11,2323,666,0,1,"no_press","Go",0,"win","GW",226,"3","b.40",46
"227","DBGE0324",10,12,9,10,11,1965,938,632,0,"press","noGo",0,"neutral","NGW",227,"3","b.40",46
"228","DBGE0324",10,12,9,10,11,2524,793,956,0,"press","noGo",0,"neutral","NGW",228,"3","b.40",46
"229","DBGE0324",10,12,9,10,11,2330,653,611,0,"press","noGo",0,"neutral","NGW",229,"3","b.40",46
"230","DBGE0324",11,12,9,10,11,1889,673,0,-1,"no_press","noGo",1,"lose","NGL",230,"3","b.40",46
"231","DBGE0324",11,12,9,10,11,2315,691,0,0,"no_press","noGo",1,"neutral","NGL",231,"3","b.40",47
"232","DBGE0324",12,12,9,10,11,2131,991,0,1,"no_press","Go",0,"win","GW",232,"3","b.40",47
"233","DBGE0324",11,12,9,10,11,3020,670,0,0,"no_press","noGo",1,"neutral","NGL",233,"3","b.40",47
"234","DBGE0324",11,12,9,10,11,2538,848,0,0,"no_press","noGo",1,"neutral","NGL",234,"3","b.40",47
"235","DBGE0324",12,12,9,10,11,1613,981,0,0,"no_press","Go",0,"neutral","GW",235,"3","b.40",47
"236","DBGE0324",9,12,9,10,11,2885,642,714,0,"press","Go",1,"neutral","GAL",236,"3","b.40",48
"237","DBGE0324",11,12,9,10,11,1848,762,0,0,"no_press","noGo",1,"neutral","NGL",237,"3","b.40",48
"238","DBGE0324",10,12,9,10,11,3029,623,619,0,"press","noGo",0,"neutral","NGW",238,"3","b.40",48
"239","DBGE0324",12,12,9,10,11,2357,638,0,1,"no_press","Go",0,"win","GW",239,"3","b.40",48
"240","DBGE0324",10,12,9,10,11,1795,808,605,0,"press","noGo",0,"neutral","NGW",240,"3","b.40",48
"241","DBGE0324",12,12,9,10,11,1554,800,0,0,"no_press","Go",0,"neutral","GW",241,"3","c.60",49
"242","DBGE0324",11,12,9,10,11,2380,562,0,-1,"no_press","noGo",1,"lose","NGL",242,"3","c.60",49
"243","DBGE0324",9,12,9,10,11,2057,843,648,0,"press","Go",1,"neutral","GAL",243,"3","c.60",49
"244","DBGE0324",10,12,9,10,11,1000,753,716,0,"press","noGo",0,"neutral","NGW",244,"3","c.60",49
"245","DBGE0324",12,12,9,10,11,1931,673,0,0,"no_press","Go",0,"neutral","GW",245,"3","c.60",49
"246","DBGE0324",10,12,9,10,11,2228,879,647,0,"press","noGo",0,"neutral","NGW",246,"3","c.60",50
"247","DBGE0324",12,12,9,10,11,1465,595,0,0,"no_press","Go",0,"neutral","GW",247,"3","c.60",50
"248","DBGE0324",12,12,9,10,11,1588,907,0,0,"no_press","Go",0,"neutral","GW",248,"3","c.60",50
"249","DBGE0324",11,12,9,10,11,2745,977,0,0,"no_press","noGo",1,"neutral","NGL",249,"3","c.60",50
"250","DBGE0324",11,12,9,10,11,2129,586,0,0,"no_press","noGo",1,"neutral","NGL",250,"3","c.60",50
"251","DBGE0324",11,12,9,10,11,1829,572,0,0,"no_press","noGo",1,"neutral","NGL",251,"3","c.60",51
"252","DBGE0324",10,12,9,10,11,1842,678,554,0,"press","noGo",0,"neutral","NGW",252,"3","c.60",51
"253","DBGE0324",10,12,9,10,11,2285,799,676,1,"press","noGo",0,"win","NGW",253,"3","c.60",51
"254","DBGE0324",11,12,9,10,11,2404,707,0,0,"no_press","noGo",1,"neutral","NGL",254,"3","c.60",51
"255","DBGE0324",12,12,9,10,11,2964,769,0,0,"no_press","Go",0,"neutral","GW",255,"3","c.60",51
"256","DBGE0324",12,12,9,10,11,2140,748,0,0,"no_press","Go",0,"neutral","GW",256,"3","c.60",52
"257","DBGE0324",9,12,9,10,11,2206,714,737,-1,"press","Go",1,"lose","GAL",257,"3","c.60",52
"258","DBGE0324",12,12,9,10,11,1763,607,0,0,"no_press","Go",0,"neutral","GW",258,"3","c.60",52
"259","DBGE0324",11,12,9,10,11,1462,689,0,-1,"no_press","noGo",1,"lose","NGL",259,"3","c.60",52
"260","DBGE0324",9,12,9,10,11,2252,927,594,0,"press","Go",1,"neutral","GAL",260,"3","c.60",52
"261","DBGE0324",11,12,9,10,11,2045,511,0,0,"no_press","noGo",1,"neutral","NGL",261,"3","d.80",53
"262","DBGE0324",12,12,9,10,11,2481,764,0,0,"no_press","Go",0,"neutral","GW",262,"3","d.80",53
"263","DBGE0324",11,12,9,10,11,1717,762,0,0,"no_press","noGo",1,"neutral","NGL",263,"3","d.80",53
"264","DBGE0324",10,12,9,10,11,1921,700,692,0,"press","noGo",0,"neutral","NGW",264,"3","d.80",53
"265","DBGE0324",9,12,9,10,11,1841,504,944,0,"press","Go",1,"neutral","GAL",265,"3","d.80",53
"266","DBGE0324",12,12,9,10,11,1674,941,0,0,"no_press","Go",0,"neutral","GW",266,"3","d.80",54
"267","DBGE0324",9,12,9,10,11,2523,974,508,0,"press","Go",1,"neutral","GAL",267,"3","d.80",54
"268","DBGE0324",11,12,9,10,11,2818,983,0,0,"no_press","noGo",1,"neutral","NGL",268,"3","d.80",54
"269","DBGE0324",11,12,9,10,11,1249,641,0,0,"no_press","noGo",1,"neutral","NGL",269,"3","d.80",54
"270","DBGE0324",10,12,9,10,11,1822,640,0,0,"no_press","noGo",1,"neutral","NGW",270,"3","d.80",54
"271","DBGE0324",12,12,9,10,11,2104,534,0,0,"no_press","Go",0,"neutral","GW",271,"3","d.80",55
"272","DBGE0324",11,12,9,10,11,1326,573,0,-1,"no_press","noGo",1,"lose","NGL",272,"3","d.80",55
"273","DBGE0324",9,12,9,10,11,2337,864,759,0,"press","Go",1,"neutral","GAL",273,"3","d.80",55
"274","DBGE0324",12,12,9,10,11,2036,882,0,0,"no_press","Go",0,"neutral","GW",274,"3","d.80",55
"275","DBGE0324",10,12,9,10,11,1000,984,636,0,"press","noGo",0,"neutral","NGW",275,"3","d.80",55
"276","DBGE0324",12,12,9,10,11,2227,841,0,0,"no_press","Go",0,"neutral","GW",276,"3","d.80",56
"277","DBGE0324",10,12,9,10,11,1715,689,636,0,"press","noGo",0,"neutral","NGW",277,"3","d.80",56
"278","DBGE0324",11,12,9,10,11,1671,718,0,0,"no_press","noGo",1,"neutral","NGL",278,"3","d.80",56
"279","DBGE0324",12,12,9,10,11,2126,682,0,0,"no_press","Go",0,"neutral","GW",279,"3","d.80",56
"280","DBGE0324",10,12,9,10,11,2299,675,507,0,"press","noGo",0,"neutral","NGW",280,"3","d.80",56
"281","DBGE0324",10,12,9,10,11,1764,590,503,1,"press","noGo",0,"win","NGW",281,"3","e.100",57
"282","DBGE0324",9,12,9,10,11,1596,915,556,0,"press","Go",1,"neutral","GAL",282,"3","e.100",57
"283","DBGE0324",9,12,9,10,11,1812,915,793,0,"press","Go",1,"neutral","GAL",283,"3","e.100",57
"284","DBGE0324",12,12,9,10,11,2266,675,0,0,"no_press","Go",0,"neutral","GW",284,"3","e.100",57
"285","DBGE0324",9,12,9,10,11,1000,522,949,0,"press","Go",1,"neutral","GAL",285,"3","e.100",57
"286","DBGE0324",9,12,9,10,11,1798,765,547,0,"press","Go",1,"neutral","GAL",286,"3","e.100",58
"287","DBGE0324",12,12,9,10,11,2451,996,0,0,"no_press","Go",0,"neutral","GW",287,"3","e.100",58
"288","DBGE0324",9,12,9,10,11,1402,551,571,0,"press","Go",1,"neutral","GAL",288,"3","e.100",58
"289","DBGE0324",12,12,9,10,11,1482,916,0,0,"no_press","Go",0,"neutral","GW",289,"3","e.100",58
"290","DBGE0324",11,12,9,10,11,1191,939,0,0,"no_press","noGo",1,"neutral","NGL",290,"3","e.100",58
"291","DBGE0324",12,12,9,10,11,1729,897,0,1,"no_press","Go",0,"win","GW",291,"3","e.100",59
"292","DBGE0324",10,12,9,10,11,2318,898,413,0,"press","noGo",0,"neutral","NGW",292,"3","e.100",59
"293","DBGE0324",12,12,9,10,11,1570,710,0,0,"no_press","Go",0,"neutral","GW",293,"3","e.100",59
"294","DBGE0324",10,12,9,10,11,1885,817,548,0,"press","noGo",0,"neutral","NGW",294,"3","e.100",59
"295","DBGE0324",11,12,9,10,11,1000,980,0,-1,"no_press","noGo",1,"lose","NGL",295,"3","e.100",59
"296","DBGE0324",9,12,9,10,11,1250,758,560,0,"press","Go",1,"neutral","GAL",296,"3","e.100",60
"297","DBGE0324",9,12,9,10,11,2382,570,557,0,"press","Go",1,"neutral","GAL",297,"3","e.100",60
"298","DBGE0324",10,12,9,10,11,2207,632,847,0,"press","noGo",0,"neutral","NGW",298,"3","e.100",60
"299","DBGE0324",12,12,9,10,11,2237,538,0,0,"no_press","Go",0,"neutral","GW",299,"3","e.100",60
"300","DBGE0324",9,12,9,10,11,1922,600,524,0,"press","Go",1,"neutral","GAL",300,"3","e.100",60
"301","DBGE0324",14,16,13,14,15,2195,757,1124,0,"press","noGo",0,"neutral","NGW",301,"4","a.20",61
"302","DBGE0324",16,16,13,14,15,2166,854,573,1,"press","Go",1,"win","GW",302,"4","a.20",61
"303","DBGE0324",13,16,13,14,15,2724,874,767,0,"press","Go",1,"neutral","GAL",303,"4","a.20",61
"304","DBGE0324",13,16,13,14,15,2977,942,820,0,"press","Go",1,"neutral","GAL",304,"4","a.20",61
"305","DBGE0324",14,16,13,14,15,1364,752,0,1,"no_press","noGo",1,"win","NGW",305,"4","a.20",61
"306","DBGE0324",16,16,13,14,15,2664,707,813,1,"press","Go",1,"win","GW",306,"4","a.20",62
"307","DBGE0324",16,16,13,14,15,1547,862,882,0,"press","Go",1,"neutral","GW",307,"4","a.20",62
"308","DBGE0324",14,16,13,14,15,2209,892,0,1,"no_press","noGo",1,"win","NGW",308,"4","a.20",62
"309","DBGE0324",15,16,13,14,15,1885,655,0,0,"no_press","noGo",1,"neutral","NGL",309,"4","a.20",62
"310","DBGE0324",14,16,13,14,15,2822,942,0,1,"no_press","noGo",1,"win","NGW",310,"4","a.20",62
"311","DBGE0324",16,16,13,14,15,1552,918,601,1,"press","Go",1,"win","GW",311,"4","a.20",63
"312","DBGE0324",13,16,13,14,15,1941,704,0,0,"no_press","Go",0,"neutral","GAL",312,"4","a.20",63
"313","DBGE0324",15,16,13,14,15,1562,887,876,-1,"press","noGo",0,"lose","NGL",313,"4","a.20",63
"314","DBGE0324",16,16,13,14,15,1555,703,1118,1,"press","Go",1,"win","GW",314,"4","a.20",63
"315","DBGE0324",13,16,13,14,15,1826,585,1048,0,"press","Go",1,"neutral","GAL",315,"4","a.20",63
"316","DBGE0324",15,16,13,14,15,2444,738,0,0,"no_press","noGo",1,"neutral","NGL",316,"4","a.20",64
"317","DBGE0324",15,16,13,14,15,1634,868,0,0,"no_press","noGo",1,"neutral","NGL",317,"4","a.20",64
"318","DBGE0324",15,16,13,14,15,2386,690,0,0,"no_press","noGo",1,"neutral","NGL",318,"4","a.20",64
"319","DBGE0324",14,16,13,14,15,2072,579,0,1,"no_press","noGo",1,"win","NGW",319,"4","a.20",64
"320","DBGE0324",13,16,13,14,15,1883,724,840,0,"press","Go",1,"neutral","GAL",320,"4","a.20",64
"321","DBGE0324",16,16,13,14,15,2855,813,578,1,"press","Go",1,"win","GW",321,"4","b.40",65
"322","DBGE0324",13,16,13,14,15,1784,866,1160,0,"press","Go",1,"neutral","GAL",322,"4","b.40",65
"323","DBGE0324",15,16,13,14,15,1491,596,0,0,"no_press","noGo",1,"neutral","NGL",323,"4","b.40",65
"324","DBGE0324",13,16,13,14,15,2066,687,677,-1,"press","Go",1,"lose","GAL",324,"4","b.40",65
"325","DBGE0324",16,16,13,14,15,2299,644,642,1,"press","Go",1,"win","GW",325,"4","b.40",65
"326","DBGE0324",15,16,13,14,15,2372,794,0,-1,"no_press","noGo",1,"lose","NGL",326,"4","b.40",66
"327","DBGE0324",14,16,13,14,15,1559,751,0,1,"no_press","noGo",1,"win","NGW",327,"4","b.40",66
"328","DBGE0324",16,16,13,14,15,2303,688,600,1,"press","Go",1,"win","GW",328,"4","b.40",66
"329","DBGE0324",14,16,13,14,15,1346,989,0,1,"no_press","noGo",1,"win","NGW",329,"4","b.40",66
"330","DBGE0324",14,16,13,14,15,2085,569,0,1,"no_press","noGo",1,"win","NGW",330,"4","b.40",66
"331","DBGE0324",14,16,13,14,15,2125,750,0,0,"no_press","noGo",1,"neutral","NGW",331,"4","b.40",67
"332","DBGE0324",16,16,13,14,15,2745,834,649,1,"press","Go",1,"win","GW",332,"4","b.40",67
"333","DBGE0324",14,16,13,14,15,2942,927,0,1,"no_press","noGo",1,"win","NGW",333,"4","b.40",67
"334","DBGE0324",13,16,13,14,15,2218,973,790,0,"press","Go",1,"neutral","GAL",334,"4","b.40",67
"335","DBGE0324",15,16,13,14,15,2008,918,0,0,"no_press","noGo",1,"neutral","NGL",335,"4","b.40",67
"336","DBGE0324",15,16,13,14,15,2503,758,0,0,"no_press","noGo",1,"neutral","NGL",336,"4","b.40",68
"337","DBGE0324",13,16,13,14,15,2250,978,704,-1,"press","Go",1,"lose","GAL",337,"4","b.40",68
"338","DBGE0324",14,16,13,14,15,1423,818,0,1,"no_press","noGo",1,"win","NGW",338,"4","b.40",68
"339","DBGE0324",15,16,13,14,15,1338,628,0,0,"no_press","noGo",1,"neutral","NGL",339,"4","b.40",68
"340","DBGE0324",13,16,13,14,15,1963,893,759,0,"press","Go",1,"neutral","GAL",340,"4","b.40",68
"341","DBGE0324",15,16,13,14,15,1461,546,0,0,"no_press","noGo",1,"neutral","NGL",341,"4","c.60",69
"342","DBGE0324",16,16,13,14,15,1954,837,562,1,"press","Go",1,"win","GW",342,"4","c.60",69
"343","DBGE0324",14,16,13,14,15,2131,799,0,0,"no_press","noGo",1,"neutral","NGW",343,"4","c.60",69
"344","DBGE0324",15,16,13,14,15,2063,589,0,0,"no_press","noGo",1,"neutral","NGL",344,"4","c.60",69
"345","DBGE0324",13,16,13,14,15,1795,768,955,0,"press","Go",1,"neutral","GAL",345,"4","c.60",69
"346","DBGE0324",16,16,13,14,15,2304,874,757,1,"press","Go",1,"win","GW",346,"4","c.60",70
"347","DBGE0324",16,16,13,14,15,2381,608,778,0,"press","Go",1,"neutral","GW",347,"4","c.60",70
"348","DBGE0324",13,16,13,14,15,2291,796,636,0,"press","Go",1,"neutral","GAL",348,"4","c.60",70
"349","DBGE0324",16,16,13,14,15,2478,818,586,0,"press","Go",1,"neutral","GW",349,"4","c.60",70
"350","DBGE0324",13,16,13,14,15,1445,709,745,0,"press","Go",1,"neutral","GAL",350,"4","c.60",70
"351","DBGE0324",15,16,13,14,15,1511,844,0,-1,"no_press","noGo",1,"lose","NGL",351,"4","c.60",71
"352","DBGE0324",16,16,13,14,15,2103,796,595,1,"press","Go",1,"win","GW",352,"4","c.60",71
"353","DBGE0324",13,16,13,14,15,2129,528,635,0,"press","Go",1,"neutral","GAL",353,"4","c.60",71
"354","DBGE0324",15,16,13,14,15,1591,862,0,0,"no_press","noGo",1,"neutral","NGL",354,"4","c.60",71
"355","DBGE0324",16,16,13,14,15,1237,909,467,1,"press","Go",1,"win","GW",355,"4","c.60",71
"356","DBGE0324",15,16,13,14,15,3099,556,0,-1,"no_press","noGo",1,"lose","NGL",356,"4","c.60",72
"357","DBGE0324",16,16,13,14,15,2349,675,688,1,"press","Go",1,"win","GW",357,"4","c.60",72
"358","DBGE0324",14,16,13,14,15,1372,534,0,1,"no_press","noGo",1,"win","NGW",358,"4","c.60",72
"359","DBGE0324",14,16,13,14,15,2088,652,0,0,"no_press","noGo",1,"neutral","NGW",359,"4","c.60",72
"360","DBGE0324",14,16,13,14,15,1511,554,0,1,"no_press","noGo",1,"win","NGW",360,"4","c.60",72
"361","DBGE0324",13,16,13,14,15,1576,990,714,0,"press","Go",1,"neutral","GAL",361,"4","d.80",73
"362","DBGE0324",14,16,13,14,15,1166,688,0,1,"no_press","noGo",1,"win","NGW",362,"4","d.80",73
"363","DBGE0324",16,16,13,14,15,2004,685,578,1,"press","Go",1,"win","GW",363,"4","d.80",73
"364","DBGE0324",14,16,13,14,15,2228,868,0,0,"no_press","noGo",1,"neutral","NGW",364,"4","d.80",73
"365","DBGE0324",15,16,13,14,15,3385,747,0,0,"no_press","noGo",1,"neutral","NGL",365,"4","d.80",73
"366","DBGE0324",16,16,13,14,15,2257,603,646,1,"press","Go",1,"win","GW",366,"4","d.80",74
"367","DBGE0324",15,16,13,14,15,2518,531,0,-1,"no_press","noGo",1,"lose","NGL",367,"4","d.80",74
"368","DBGE0324",15,16,13,14,15,1761,759,0,0,"no_press","noGo",1,"neutral","NGL",368,"4","d.80",74
"369","DBGE0324",15,16,13,14,15,1000,838,0,0,"no_press","noGo",1,"neutral","NGL",369,"4","d.80",74
"370","DBGE0324",13,16,13,14,15,1615,778,794,0,"press","Go",1,"neutral","GAL",370,"4","d.80",74
"371","DBGE0324",16,16,13,14,15,1990,697,580,1,"press","Go",1,"win","GW",371,"4","d.80",75
"372","DBGE0324",16,16,13,14,15,1752,760,719,0,"press","Go",1,"neutral","GW",372,"4","d.80",75
"373","DBGE0324",13,16,13,14,15,2360,508,654,0,"press","Go",1,"neutral","GAL",373,"4","d.80",75
"374","DBGE0324",13,16,13,14,15,2234,747,575,0,"press","Go",1,"neutral","GAL",374,"4","d.80",75
"375","DBGE0324",16,16,13,14,15,1597,970,670,1,"press","Go",1,"win","GW",375,"4","d.80",75
"376","DBGE0324",16,16,13,14,15,1742,642,491,0,"press","Go",1,"neutral","GW",376,"4","d.80",76
"377","DBGE0324",16,16,13,14,15,1275,851,538,1,"press","Go",1,"win","GW",377,"4","d.80",76
"378","DBGE0324",13,16,13,14,15,1246,714,540,-1,"press","Go",1,"lose","GAL",378,"4","d.80",76
"379","DBGE0324",14,16,13,14,15,2125,759,0,1,"no_press","noGo",1,"win","NGW",379,"4","d.80",76
"380","DBGE0324",14,16,13,14,15,2245,852,0,1,"no_press","noGo",1,"win","NGW",380,"4","d.80",76
"381","DBGE0324",16,16,13,14,15,1485,761,638,1,"press","Go",1,"win","GW",381,"4","e.100",77
"382","DBGE0324",13,16,13,14,15,1614,786,586,0,"press","Go",1,"neutral","GAL",382,"4","e.100",77
"383","DBGE0324",13,16,13,14,15,2579,745,781,0,"press","Go",1,"neutral","GAL",383,"4","e.100",77
"384","DBGE0324",15,16,13,14,15,2277,682,0,0,"no_press","noGo",1,"neutral","NGL",384,"4","e.100",77
"385","DBGE0324",13,16,13,14,15,1000,985,865,-1,"press","Go",1,"lose","GAL",385,"4","e.100",77
"386","DBGE0324",15,16,13,14,15,1509,900,0,0,"no_press","noGo",1,"neutral","NGL",386,"4","e.100",78
"387","DBGE0324",14,16,13,14,15,2176,580,0,1,"no_press","noGo",1,"win","NGW",387,"4","e.100",78
"388","DBGE0324",15,16,13,14,15,2315,569,0,0,"no_press","noGo",1,"neutral","NGL",388,"4","e.100",78
"389","DBGE0324",14,16,13,14,15,1655,695,0,1,"no_press","noGo",1,"win","NGW",389,"4","e.100",78
"390","DBGE0324",15,16,13,14,15,2864,870,0,-1,"no_press","noGo",1,"lose","NGL",390,"4","e.100",78
"391","DBGE0324",16,16,13,14,15,1702,948,570,1,"press","Go",1,"win","GW",391,"4","e.100",79
"392","DBGE0324",14,16,13,14,15,1433,678,0,1,"no_press","noGo",1,"win","NGW",392,"4","e.100",79
"393","DBGE0324",15,16,13,14,15,1598,627,0,0,"no_press","noGo",1,"neutral","NGL",393,"4","e.100",79
"394","DBGE0324",13,16,13,14,15,1430,810,768,0,"press","Go",1,"neutral","GAL",394,"4","e.100",79
"395","DBGE0324",14,16,13,14,15,5000,948,0,1,"no_press","noGo",1,"win","NGW",395,"4","e.100",79
"396","DBGE0324",15,16,13,14,15,1444,724,0,0,"no_press","noGo",1,"neutral","NGL",396,"4","e.100",80
"397","DBGE0324",13,16,13,14,15,2239,816,608,0,"press","Go",1,"neutral","GAL",397,"4","e.100",80
"398","DBGE0324",14,16,13,14,15,1861,756,0,1,"no_press","noGo",1,"win","NGW",398,"4","e.100",80
"399","DBGE0324",13,16,13,14,15,1942,640,817,0,"press","Go",1,"neutral","GAL",399,"4","e.100",80
"400","DBGE0324",14,16,13,14,15,1330,776,0,0,"no_press","noGo",1,"neutral","NGW",400,"4","e.100",80
"401","MRGI0033",3,2,3,4,1,2593,868,510,0,"press","Go",1,"neutral","GAL",1,"1","a.20",1
"402","MRGI0033",4,2,3,4,1,1874,996,0,1,"no_press","noGo",1,"win","NGW",2,"1","a.20",1
"403","MRGI0033",1,2,3,4,1,2027,957,897,0,"press","noGo",0,"neutral","NGL",3,"1","a.20",1
"404","MRGI0033",1,2,3,4,1,1952,863,512,-1,"press","noGo",0,"lose","NGL",4,"1","a.20",1
"405","MRGI0033",4,2,3,4,1,1614,691,619,0,"press","noGo",0,"neutral","NGW",5,"1","a.20",1
"406","MRGI0033",1,2,3,4,1,2915,897,496,-1,"press","noGo",0,"lose","NGL",6,"1","a.20",2
"407","MRGI0033",2,2,3,4,1,2374,824,559,1,"press","Go",1,"win","GW",7,"1","a.20",2
"408","MRGI0033",2,2,3,4,1,1818,887,596,1,"press","Go",1,"win","GW",8,"1","a.20",2
"409","MRGI0033",1,2,3,4,1,3320,647,0,0,"no_press","noGo",1,"neutral","NGL",9,"1","a.20",2
"410","MRGI0033",3,2,3,4,1,1392,803,716,0,"press","Go",1,"neutral","GAL",10,"1","a.20",2
"411","MRGI0033",1,2,3,4,1,2438,677,0,0,"no_press","noGo",1,"neutral","NGL",11,"1","a.20",3
"412","MRGI0033",4,2,3,4,1,2606,578,525,1,"press","noGo",0,"win","NGW",12,"1","a.20",3
"413","MRGI0033",3,2,3,4,1,2489,702,0,-1,"no_press","Go",0,"lose","GAL",13,"1","a.20",3
"414","MRGI0033",4,2,3,4,1,2569,505,462,0,"press","noGo",0,"neutral","NGW",14,"1","a.20",3
"415","MRGI0033",2,2,3,4,1,1740,614,525,1,"press","Go",1,"win","GW",15,"1","a.20",3
"416","MRGI0033",3,2,3,4,1,2399,797,565,0,"press","Go",1,"neutral","GAL",16,"1","a.20",4
"417","MRGI0033",2,2,3,4,1,1987,767,474,1,"press","Go",1,"win","GW",17,"1","a.20",4
"418","MRGI0033",3,2,3,4,1,1200,771,1020,0,"press","Go",1,"neutral","GAL",18,"1","a.20",4
"419","MRGI0033",3,2,3,4,1,1837,576,582,0,"press","Go",1,"neutral","GAL",19,"1","a.20",4
"420","MRGI0033",1,2,3,4,1,2338,627,0,0,"no_press","noGo",1,"neutral","NGL",20,"1","a.20",4
"421","MRGI0033",3,2,3,4,1,2611,978,531,-1,"press","Go",1,"lose","GAL",21,"1","b.40",5
"422","MRGI0033",3,2,3,4,1,1687,575,601,0,"press","Go",1,"neutral","GAL",22,"1","b.40",5
"423","MRGI0033",1,2,3,4,1,2767,738,0,0,"no_press","noGo",1,"neutral","NGL",23,"1","b.40",5
"424","MRGI0033",4,2,3,4,1,2705,919,513,1,"press","noGo",0,"win","NGW",24,"1","b.40",5
"425","MRGI0033",1,2,3,4,1,1739,718,0,0,"no_press","noGo",1,"neutral","NGL",25,"1","b.40",5
"426","MRGI0033",2,2,3,4,1,1504,640,460,0,"press","Go",1,"neutral","GW",26,"1","b.40",6
"427","MRGI0033",1,2,3,4,1,2946,873,0,0,"no_press","noGo",1,"neutral","NGL",27,"1","b.40",6
"428","MRGI0033",2,2,3,4,1,2972,980,466,1,"press","Go",1,"win","GW",28,"1","b.40",6
"429","MRGI0033",4,2,3,4,1,1963,711,498,0,"press","noGo",0,"neutral","NGW",29,"1","b.40",6
"430","MRGI0033",1,2,3,4,1,1722,916,0,0,"no_press","noGo",1,"neutral","NGL",30,"1","b.40",6
"431","MRGI0033",1,2,3,4,1,1834,692,0,0,"no_press","noGo",1,"neutral","NGL",31,"1","b.40",7
"432","MRGI0033",4,2,3,4,1,1501,551,518,0,"press","noGo",0,"neutral","NGW",32,"1","b.40",7
"433","MRGI0033",2,2,3,4,1,1843,793,521,1,"press","Go",1,"win","GW",33,"1","b.40",7
"434","MRGI0033",1,2,3,4,1,1460,640,0,0,"no_press","noGo",1,"neutral","NGL",34,"1","b.40",7
"435","MRGI0033",4,2,3,4,1,2085,805,487,0,"press","noGo",0,"neutral","NGW",35,"1","b.40",7
"436","MRGI0033",3,2,3,4,1,2042,574,555,0,"press","Go",1,"neutral","GAL",36,"1","b.40",8
"437","MRGI0033",2,2,3,4,1,1714,928,532,0,"press","Go",1,"neutral","GW",37,"1","b.40",8
"438","MRGI0033",2,2,3,4,1,2815,966,520,1,"press","Go",1,"win","GW",38,"1","b.40",8
"439","MRGI0033",2,2,3,4,1,2385,705,457,1,"press","Go",1,"win","GW",39,"1","b.40",8
"440","MRGI0033",3,2,3,4,1,1715,739,554,0,"press","Go",1,"neutral","GAL",40,"1","b.40",8
"441","MRGI0033",2,2,3,4,1,2010,712,410,1,"press","Go",1,"win","GW",41,"1","c.60",9
"442","MRGI0033",3,2,3,4,1,1935,623,424,-1,"press","Go",1,"lose","GAL",42,"1","c.60",9
"443","MRGI0033",4,2,3,4,1,1647,692,479,0,"press","noGo",0,"neutral","NGW",43,"1","c.60",9
"444","MRGI0033",1,2,3,4,1,2762,929,324,0,"press","noGo",0,"neutral","NGL",44,"1","c.60",9
"445","MRGI0033",2,2,3,4,1,1252,992,456,1,"press","Go",1,"win","GW",45,"1","c.60",9
"446","MRGI0033",3,2,3,4,1,1590,771,746,0,"press","Go",1,"neutral","GAL",46,"1","c.60",10
"447","MRGI0033",2,2,3,4,1,2433,679,499,1,"press","Go",1,"win","GW",47,"1","c.60",10
"448","MRGI0033",4,2,3,4,1,1667,837,463,0,"press","noGo",0,"neutral","NGW",48,"1","c.60",10
"449","MRGI0033",3,2,3,4,1,2029,904,607,0,"press","Go",1,"neutral","GAL",49,"1","c.60",10
"450","MRGI0033",1,2,3,4,1,2196,612,0,0,"no_press","noGo",1,"neutral","NGL",50,"1","c.60",10
"451","MRGI0033",4,2,3,4,1,1924,839,524,0,"press","noGo",0,"neutral","NGW",51,"1","c.60",11
"452","MRGI0033",3,2,3,4,1,2715,757,673,-1,"press","Go",1,"lose","GAL",52,"1","c.60",11
"453","MRGI0033",2,2,3,4,1,2420,655,417,1,"press","Go",1,"win","GW",53,"1","c.60",11
"454","MRGI0033",2,2,3,4,1,2248,886,482,1,"press","Go",1,"win","GW",54,"1","c.60",11
"455","MRGI0033",1,2,3,4,1,1482,712,0,0,"no_press","noGo",1,"neutral","NGL",55,"1","c.60",11
"456","MRGI0033",1,2,3,4,1,1228,548,0,0,"no_press","noGo",1,"neutral","NGL",56,"1","c.60",12
"457","MRGI0033",3,2,3,4,1,2105,533,629,-1,"press","Go",1,"lose","GAL",57,"1","c.60",12
"458","MRGI0033",4,2,3,4,1,2592,609,584,0,"press","noGo",0,"neutral","NGW",58,"1","c.60",12
"459","MRGI0033",3,2,3,4,1,1991,789,647,0,"press","Go",1,"neutral","GAL",59,"1","c.60",12
"460","MRGI0033",1,2,3,4,1,1531,640,0,0,"no_press","noGo",1,"neutral","NGL",60,"1","c.60",12
"461","MRGI0033",2,2,3,4,1,1856,735,396,1,"press","Go",1,"win","GW",61,"1","d.80",13
"462","MRGI0033",2,2,3,4,1,1527,891,491,0,"press","Go",1,"neutral","GW",62,"1","d.80",13
"463","MRGI0033",4,2,3,4,1,3110,925,0,1,"no_press","noGo",1,"win","NGW",63,"1","d.80",13
"464","MRGI0033",1,2,3,4,1,1923,719,0,-1,"no_press","noGo",1,"lose","NGL",64,"1","d.80",13
"465","MRGI0033",4,2,3,4,1,2061,515,0,1,"no_press","noGo",1,"win","NGW",65,"1","d.80",13
"466","MRGI0033",1,2,3,4,1,2694,894,0,0,"no_press","noGo",1,"neutral","NGL",66,"1","d.80",14
"467","MRGI0033",2,2,3,4,1,2033,689,689,1,"press","Go",1,"win","GW",67,"1","d.80",14
"468","MRGI0033",3,2,3,4,1,3158,600,467,0,"press","Go",1,"neutral","GAL",68,"1","d.80",14
"469","MRGI0033",4,2,3,4,1,2547,695,0,1,"no_press","noGo",1,"win","NGW",69,"1","d.80",14
"470","MRGI0033",3,2,3,4,1,2927,749,627,0,"press","Go",1,"neutral","GAL",70,"1","d.80",14
"471","MRGI0033",1,2,3,4,1,1809,821,0,-1,"no_press","noGo",1,"lose","NGL",71,"1","d.80",15
"472","MRGI0033",2,2,3,4,1,2373,636,506,1,"press","Go",1,"win","GW",72,"1","d.80",15
"473","MRGI0033",4,2,3,4,1,1523,943,0,1,"no_press","noGo",1,"win","NGW",73,"1","d.80",15
"474","MRGI0033",1,2,3,4,1,2383,725,0,0,"no_press","noGo",1,"neutral","NGL",74,"1","d.80",15
"475","MRGI0033",4,2,3,4,1,1582,547,585,0,"press","noGo",0,"neutral","NGW",75,"1","d.80",15
"476","MRGI0033",4,2,3,4,1,2301,912,0,1,"no_press","noGo",1,"win","NGW",76,"1","d.80",16
"477","MRGI0033",4,2,3,4,1,1729,851,0,0,"no_press","noGo",1,"neutral","NGW",77,"1","d.80",16
"478","MRGI0033",4,2,3,4,1,1902,520,0,1,"no_press","noGo",1,"win","NGW",78,"1","d.80",16
"479","MRGI0033",4,2,3,4,1,1284,690,0,1,"no_press","noGo",1,"win","NGW",79,"1","d.80",16
"480","MRGI0033",4,2,3,4,1,2087,839,0,1,"no_press","noGo",1,"win","NGW",80,"1","d.80",16
"481","MRGI0033",2,2,3,4,1,1825,637,679,0,"press","Go",1,"neutral","GW",81,"1","e.100",17
"482","MRGI0033",1,2,3,4,1,2602,570,0,0,"no_press","noGo",1,"neutral","NGL",82,"1","e.100",17
"483","MRGI0033",1,2,3,4,1,1624,863,0,-1,"no_press","noGo",1,"lose","NGL",83,"1","e.100",17
"484","MRGI0033",4,2,3,4,1,2522,928,0,1,"no_press","noGo",1,"win","NGW",84,"1","e.100",17
"485","MRGI0033",3,2,3,4,1,1773,643,855,0,"press","Go",1,"neutral","GAL",85,"1","e.100",17
"486","MRGI0033",3,2,3,4,1,1571,669,479,0,"press","Go",1,"neutral","GAL",86,"1","e.100",18
"487","MRGI0033",1,2,3,4,1,2336,910,0,0,"no_press","noGo",1,"neutral","NGL",87,"1","e.100",18
"488","MRGI0033",3,2,3,4,1,2652,895,600,-1,"press","Go",1,"lose","GAL",88,"1","e.100",18
"489","MRGI0033",3,2,3,4,1,1452,803,466,0,"press","Go",1,"neutral","GAL",89,"1","e.100",18
"490","MRGI0033",4,2,3,4,1,1701,754,0,0,"no_press","noGo",1,"neutral","NGW",90,"1","e.100",18
"491","MRGI0033",3,2,3,4,1,1492,843,556,0,"press","Go",1,"neutral","GAL",91,"1","e.100",19
"492","MRGI0033",3,2,3,4,1,1708,589,592,0,"press","Go",1,"neutral","GAL",92,"1","e.100",19
"493","MRGI0033",4,2,3,4,1,1687,605,0,0,"no_press","noGo",1,"neutral","NGW",93,"1","e.100",19
"494","MRGI0033",3,2,3,4,1,1738,920,548,0,"press","Go",1,"neutral","GAL",94,"1","e.100",19
"495","MRGI0033",2,2,3,4,1,1553,793,572,1,"press","Go",1,"win","GW",95,"1","e.100",19
"496","MRGI0033",2,2,3,4,1,1375,821,457,1,"press","Go",1,"win","GW",96,"1","e.100",20
"497","MRGI0033",2,2,3,4,1,1352,902,501,1,"press","Go",1,"win","GW",97,"1","e.100",20
"498","MRGI0033",2,2,3,4,1,1651,964,508,0,"press","Go",1,"neutral","GW",98,"1","e.100",20
"499","MRGI0033",1,2,3,4,1,1683,802,0,0,"no_press","noGo",1,"neutral","NGL",99,"1","e.100",20
"500","MRGI0033",2,2,3,4,1,2643,610,446,1,"press","Go",1,"win","GW",100,"1","e.100",20
"501","MRGI0033",8,6,5,8,7,1848,623,711,0,"press","noGo",0,"neutral","NGW",101,"2","a.20",21
"502","MRGI0033",7,6,5,8,7,1673,585,359,-1,"press","noGo",0,"lose","NGL",102,"2","a.20",21
"503","MRGI0033",6,6,5,8,7,1933,731,314,1,"press","Go",1,"win","GW",103,"2","a.20",21
"504","MRGI0033",7,6,5,8,7,2050,954,0,0,"no_press","noGo",1,"neutral","NGL",104,"2","a.20",21
"505","MRGI0033",7,6,5,8,7,1800,557,0,0,"no_press","noGo",1,"neutral","NGL",105,"2","a.20",21
"506","MRGI0033",7,6,5,8,7,1267,502,0,0,"no_press","noGo",1,"neutral","NGL",106,"2","a.20",22
"507","MRGI0033",6,6,5,8,7,1804,600,380,1,"press","Go",1,"win","GW",107,"2","a.20",22
"508","MRGI0033",6,6,5,8,7,1556,904,660,1,"press","Go",1,"win","GW",108,"2","a.20",22
"509","MRGI0033",7,6,5,8,7,1237,815,0,0,"no_press","noGo",1,"neutral","NGL",109,"2","a.20",22
"510","MRGI0033",5,6,5,8,7,2510,702,619,0,"press","Go",1,"neutral","GAL",110,"2","a.20",22
"511","MRGI0033",8,6,5,8,7,1729,849,0,1,"no_press","noGo",1,"win","NGW",111,"2","a.20",23
"512","MRGI0033",5,6,5,8,7,2660,817,455,0,"press","Go",1,"neutral","GAL",112,"2","a.20",23
"513","MRGI0033",8,6,5,8,7,1989,570,0,1,"no_press","noGo",1,"win","NGW",113,"2","a.20",23
"514","MRGI0033",5,6,5,8,7,2473,685,831,0,"press","Go",1,"neutral","GAL",114,"2","a.20",23
"515","MRGI0033",7,6,5,8,7,1891,740,0,0,"no_press","noGo",1,"neutral","NGL",115,"2","a.20",23
"516","MRGI0033",5,6,5,8,7,2723,702,496,-1,"press","Go",1,"lose","GAL",116,"2","a.20",24
"517","MRGI0033",6,6,5,8,7,2291,806,465,1,"press","Go",1,"win","GW",117,"2","a.20",24
"518","MRGI0033",5,6,5,8,7,1361,959,436,0,"press","Go",1,"neutral","GAL",118,"2","a.20",24
"519","MRGI0033",8,6,5,8,7,1623,616,0,0,"no_press","noGo",1,"neutral","NGW",119,"2","a.20",24
"520","MRGI0033",7,6,5,8,7,1935,734,0,0,"no_press","noGo",1,"neutral","NGL",120,"2","a.20",24
"521","MRGI0033",7,6,5,8,7,2280,736,0,0,"no_press","noGo",1,"neutral","NGL",121,"2","b.40",25
"522","MRGI0033",8,6,5,8,7,2285,778,0,1,"no_press","noGo",1,"win","NGW",122,"2","b.40",25
"523","MRGI0033",6,6,5,8,7,2085,633,649,1,"press","Go",1,"win","GW",123,"2","b.40",25
"524","MRGI0033",7,6,5,8,7,2430,887,0,-1,"no_press","noGo",1,"lose","NGL",124,"2","b.40",25
"525","MRGI0033",5,6,5,8,7,1368,862,615,0,"press","Go",1,"neutral","GAL",125,"2","b.40",25
"526","MRGI0033",8,6,5,8,7,2030,896,0,1,"no_press","noGo",1,"win","NGW",126,"2","b.40",26
"527","MRGI0033",6,6,5,8,7,2284,799,588,1,"press","Go",1,"win","GW",127,"2","b.40",26
"528","MRGI0033",5,6,5,8,7,2389,608,591,0,"press","Go",1,"neutral","GAL",128,"2","b.40",26
"529","MRGI0033",7,6,5,8,7,3112,949,0,0,"no_press","noGo",1,"neutral","NGL",129,"2","b.40",26
"530","MRGI0033",8,6,5,8,7,2121,545,0,1,"no_press","noGo",1,"win","NGW",130,"2","b.40",26
"531","MRGI0033",5,6,5,8,7,2322,893,394,-1,"press","Go",1,"lose","GAL",131,"2","b.40",27
"532","MRGI0033",6,6,5,8,7,1557,692,406,1,"press","Go",1,"win","GW",132,"2","b.40",27
"533","MRGI0033",8,6,5,8,7,1825,746,0,0,"no_press","noGo",1,"neutral","NGW",133,"2","b.40",27
"534","MRGI0033",7,6,5,8,7,2485,692,0,0,"no_press","noGo",1,"neutral","NGL",134,"2","b.40",27
"535","MRGI0033",5,6,5,8,7,1216,700,400,0,"press","Go",1,"neutral","GAL",135,"2","b.40",27
"536","MRGI0033",7,6,5,8,7,1570,736,0,-1,"no_press","noGo",1,"lose","NGL",136,"2","b.40",28
"537","MRGI0033",5,6,5,8,7,2471,886,545,0,"press","Go",1,"neutral","GAL",137,"2","b.40",28
"538","MRGI0033",7,6,5,8,7,2192,740,0,-1,"no_press","noGo",1,"lose","NGL",138,"2","b.40",28
"539","MRGI0033",5,6,5,8,7,3250,956,550,0,"press","Go",1,"neutral","GAL",139,"2","b.40",28
"540","MRGI0033",6,6,5,8,7,2751,785,410,0,"press","Go",1,"neutral","GW",140,"2","b.40",28
"541","MRGI0033",5,6,5,8,7,2580,928,295,0,"press","Go",1,"neutral","GAL",141,"2","c.60",29
"542","MRGI0033",6,6,5,8,7,2220,923,535,1,"press","Go",1,"win","GW",142,"2","c.60",29
"543","MRGI0033",7,6,5,8,7,2676,875,0,0,"no_press","noGo",1,"neutral","NGL",143,"2","c.60",29
"544","MRGI0033",7,6,5,8,7,2454,930,0,0,"no_press","noGo",1,"neutral","NGL",144,"2","c.60",29
"545","MRGI0033",7,6,5,8,7,2950,628,0,-1,"no_press","noGo",1,"lose","NGL",145,"2","c.60",29
"546","MRGI0033",7,6,5,8,7,1512,967,0,0,"no_press","noGo",1,"neutral","NGL",146,"2","c.60",30
"547","MRGI0033",5,6,5,8,7,1507,668,623,-1,"press","Go",1,"lose","GAL",147,"2","c.60",30
"548","MRGI0033",7,6,5,8,7,2913,691,0,0,"no_press","noGo",1,"neutral","NGL",148,"2","c.60",30
"549","MRGI0033",6,6,5,8,7,1625,833,491,1,"press","Go",1,"win","GW",149,"2","c.60",30
"550","MRGI0033",8,6,5,8,7,3131,896,0,1,"no_press","noGo",1,"win","NGW",150,"2","c.60",30
"551","MRGI0033",6,6,5,8,7,1545,778,518,1,"press","Go",1,"win","GW",151,"2","c.60",31
"552","MRGI0033",5,6,5,8,7,1963,529,515,0,"press","Go",1,"neutral","GAL",152,"2","c.60",31
"553","MRGI0033",8,6,5,8,7,1252,635,0,0,"no_press","noGo",1,"neutral","NGW",153,"2","c.60",31
"554","MRGI0033",8,6,5,8,7,1977,677,0,1,"no_press","noGo",1,"win","NGW",154,"2","c.60",31
"555","MRGI0033",5,6,5,8,7,2326,986,510,-1,"press","Go",1,"lose","GAL",155,"2","c.60",31
"556","MRGI0033",7,6,5,8,7,2181,883,0,0,"no_press","noGo",1,"neutral","NGL",156,"2","c.60",32
"557","MRGI0033",5,6,5,8,7,2459,515,504,-1,"press","Go",1,"lose","GAL",157,"2","c.60",32
"558","MRGI0033",6,6,5,8,7,2072,646,431,1,"press","Go",1,"win","GW",158,"2","c.60",32
"559","MRGI0033",6,6,5,8,7,1423,765,522,1,"press","Go",1,"win","GW",159,"2","c.60",32
"560","MRGI0033",7,6,5,8,7,2340,765,0,-1,"no_press","noGo",1,"lose","NGL",160,"2","c.60",32
"561","MRGI0033",7,6,5,8,7,1804,752,0,0,"no_press","noGo",1,"neutral","NGL",161,"2","d.80",33
"562","MRGI0033",8,6,5,8,7,1261,703,0,1,"no_press","noGo",1,"win","NGW",162,"2","d.80",33
"563","MRGI0033",7,6,5,8,7,1895,941,0,0,"no_press","noGo",1,"neutral","NGL",163,"2","d.80",33
"564","MRGI0033",7,6,5,8,7,1808,877,0,0,"no_press","noGo",1,"neutral","NGL",164,"2","d.80",33
"565","MRGI0033",6,6,5,8,7,2948,949,518,1,"press","Go",1,"win","GW",165,"2","d.80",33
"566","MRGI0033",6,6,5,8,7,2949,989,515,1,"press","Go",1,"win","GW",166,"2","d.80",34
"567","MRGI0033",6,6,5,8,7,2153,692,557,1,"press","Go",1,"win","GW",167,"2","d.80",34
"568","MRGI0033",5,6,5,8,7,2173,849,544,0,"press","Go",1,"neutral","GAL",168,"2","d.80",34
"569","MRGI0033",7,6,5,8,7,2892,801,0,0,"no_press","noGo",1,"neutral","NGL",169,"2","d.80",34
"570","MRGI0033",5,6,5,8,7,1400,664,532,0,"press","Go",1,"neutral","GAL",170,"2","d.80",34
"571","MRGI0033",8,6,5,8,7,1000,769,0,1,"no_press","noGo",1,"win","NGW",171,"2","d.80",35
"572","MRGI0033",5,6,5,8,7,1987,656,684,0,"press","Go",1,"neutral","GAL",172,"2","d.80",35
"573","MRGI0033",5,6,5,8,7,1294,856,651,0,"press","Go",1,"neutral","GAL",173,"2","d.80",35
"574","MRGI0033",8,6,5,8,7,2214,537,0,0,"no_press","noGo",1,"neutral","NGW",174,"2","d.80",35
"575","MRGI0033",8,6,5,8,7,2216,904,0,1,"no_press","noGo",1,"win","NGW",175,"2","d.80",35
"576","MRGI0033",6,6,5,8,7,2676,754,509,1,"press","Go",1,"win","GW",176,"2","d.80",36
"577","MRGI0033",6,6,5,8,7,3332,996,591,0,"press","Go",1,"neutral","GW",177,"2","d.80",36
"578","MRGI0033",8,6,5,8,7,2594,700,0,1,"no_press","noGo",1,"win","NGW",178,"2","d.80",36
"579","MRGI0033",6,6,5,8,7,3567,788,0,1,"no_press","Go",0,"win","GW",179,"2","d.80",36
"580","MRGI0033",7,6,5,8,7,2610,685,0,0,"no_press","noGo",1,"neutral","NGL",180,"2","d.80",36
"581","MRGI0033",8,6,5,8,7,1000,768,0,1,"no_press","noGo",1,"win","NGW",181,"2","e.100",37
"582","MRGI0033",8,6,5,8,7,3624,674,0,1,"no_press","noGo",1,"win","NGW",182,"2","e.100",37
"583","MRGI0033",8,6,5,8,7,2371,507,0,0,"no_press","noGo",1,"neutral","NGW",183,"2","e.100",37
"584","MRGI0033",5,6,5,8,7,1828,815,583,0,"press","Go",1,"neutral","GAL",184,"2","e.100",37
"585","MRGI0033",8,6,5,8,7,2373,893,0,1,"no_press","noGo",1,"win","NGW",185,"2","e.100",37
"586","MRGI0033",8,6,5,8,7,2309,750,0,1,"no_press","noGo",1,"win","NGW",186,"2","e.100",38
"587","MRGI0033",6,6,5,8,7,1235,960,600,1,"press","Go",1,"win","GW",187,"2","e.100",38
"588","MRGI0033",5,6,5,8,7,1586,633,567,0,"press","Go",1,"neutral","GAL",188,"2","e.100",38
"589","MRGI0033",5,6,5,8,7,2224,809,471,0,"press","Go",1,"neutral","GAL",189,"2","e.100",38
"590","MRGI0033",8,6,5,8,7,2359,615,0,1,"no_press","noGo",1,"win","NGW",190,"2","e.100",38
"591","MRGI0033",5,6,5,8,7,1515,846,570,0,"press","Go",1,"neutral","GAL",191,"2","e.100",39
"592","MRGI0033",8,6,5,8,7,2564,974,0,1,"no_press","noGo",1,"win","NGW",192,"2","e.100",39
"593","MRGI0033",6,6,5,8,7,1589,933,495,0,"press","Go",1,"neutral","GW",193,"2","e.100",39
"594","MRGI0033",6,6,5,8,7,1473,612,586,1,"press","Go",1,"win","GW",194,"2","e.100",39
"595","MRGI0033",6,6,5,8,7,2507,561,485,1,"press","Go",1,"win","GW",195,"2","e.100",39
"596","MRGI0033",6,6,5,8,7,2073,720,456,1,"press","Go",1,"win","GW",196,"2","e.100",40
"597","MRGI0033",8,6,5,8,7,1533,667,0,1,"no_press","noGo",1,"win","NGW",197,"2","e.100",40
"598","MRGI0033",5,6,5,8,7,2169,719,559,0,"press","Go",1,"neutral","GAL",198,"2","e.100",40
"599","MRGI0033",8,6,5,8,7,1437,986,0,1,"no_press","noGo",1,"win","NGW",199,"2","e.100",40
"600","MRGI0033",6,6,5,8,7,1569,862,510,0,"press","Go",1,"neutral","GW",200,"2","e.100",40
"601","MRGI0033",9,10,9,12,11,1581,738,542,0,"press","Go",1,"neutral","GAL",201,"3","a.20",41
"602","MRGI0033",11,10,9,12,11,2319,822,328,-1,"press","noGo",0,"lose","NGL",202,"3","a.20",41
"603","MRGI0033",12,10,9,12,11,1300,956,488,0,"press","noGo",0,"neutral","NGW",203,"3","a.20",41
"604","MRGI0033",9,10,9,12,11,2815,523,0,-1,"no_press","Go",0,"lose","GAL",204,"3","a.20",41
"605","MRGI0033",9,10,9,12,11,2370,707,488,0,"press","Go",1,"neutral","GAL",205,"3","a.20",41
"606","MRGI0033",9,10,9,12,11,2100,817,599,0,"press","Go",1,"neutral","GAL",206,"3","a.20",42
"607","MRGI0033",12,10,9,12,11,2543,664,0,1,"no_press","noGo",1,"win","NGW",207,"3","a.20",42
"608","MRGI0033",10,10,9,12,11,1522,977,669,1,"press","Go",1,"win","GW",208,"3","a.20",42
"609","MRGI0033",12,10,9,12,11,2684,909,0,0,"no_press","noGo",1,"neutral","NGW",209,"3","a.20",42
"610","MRGI0033",10,10,9,12,11,2195,808,783,1,"press","Go",1,"win","GW",210,"3","a.20",42
"611","MRGI0033",9,10,9,12,11,2616,777,578,0,"press","Go",1,"neutral","GAL",211,"3","a.20",43
"612","MRGI0033",9,10,9,12,11,1709,760,526,0,"press","Go",1,"neutral","GAL",212,"3","a.20",43
"613","MRGI0033",11,10,9,12,11,2558,817,0,0,"no_press","noGo",1,"neutral","NGL",213,"3","a.20",43
"614","MRGI0033",11,10,9,12,11,1613,653,0,0,"no_press","noGo",1,"neutral","NGL",214,"3","a.20",43
"615","MRGI0033",10,10,9,12,11,1764,798,579,1,"press","Go",1,"win","GW",215,"3","a.20",43
"616","MRGI0033",12,10,9,12,11,1408,772,0,1,"no_press","noGo",1,"win","NGW",216,"3","a.20",44
"617","MRGI0033",11,10,9,12,11,3150,920,0,0,"no_press","noGo",1,"neutral","NGL",217,"3","a.20",44
"618","MRGI0033",10,10,9,12,11,1531,829,0,1,"no_press","Go",0,"win","GW",218,"3","a.20",44
"619","MRGI0033",12,10,9,12,11,2293,503,0,1,"no_press","noGo",1,"win","NGW",219,"3","a.20",44
"620","MRGI0033",10,10,9,12,11,2405,749,549,1,"press","Go",1,"win","GW",220,"3","a.20",44
"621","MRGI0033",11,10,9,12,11,2391,518,0,-1,"no_press","noGo",1,"lose","NGL",221,"3","b.40",45
"622","MRGI0033",10,10,9,12,11,1000,975,588,1,"press","Go",1,"win","GW",222,"3","b.40",45
"623","MRGI0033",12,10,9,12,11,2948,584,0,1,"no_press","noGo",1,"win","NGW",223,"3","b.40",45
"624","MRGI0033",9,10,9,12,11,2547,761,1182,0,"press","Go",1,"neutral","GAL",224,"3","b.40",45
"625","MRGI0033",11,10,9,12,11,2317,850,0,-1,"no_press","noGo",1,"lose","NGL",225,"3","b.40",45
"626","MRGI0033",9,10,9,12,11,1871,519,1026,0,"press","Go",1,"neutral","GAL",226,"3","b.40",46
"627","MRGI0033",9,10,9,12,11,1943,907,802,0,"press","Go",1,"neutral","GAL",227,"3","b.40",46
"628","MRGI0033",12,10,9,12,11,1000,936,0,1,"no_press","noGo",1,"win","NGW",228,"3","b.40",46
"629","MRGI0033",12,10,9,12,11,2130,614,0,0,"no_press","noGo",1,"neutral","NGW",229,"3","b.40",46
"630","MRGI0033",11,10,9,12,11,1229,952,0,0,"no_press","noGo",1,"neutral","NGL",230,"3","b.40",46
"631","MRGI0033",9,10,9,12,11,1317,547,600,0,"press","Go",1,"neutral","GAL",231,"3","b.40",47
"632","MRGI0033",9,10,9,12,11,2194,911,584,0,"press","Go",1,"neutral","GAL",232,"3","b.40",47
"633","MRGI0033",12,10,9,12,11,1838,684,0,1,"no_press","noGo",1,"win","NGW",233,"3","b.40",47
"634","MRGI0033",10,10,9,12,11,2726,532,446,1,"press","Go",1,"win","GW",234,"3","b.40",47
"635","MRGI0033",9,10,9,12,11,1786,505,517,0,"press","Go",1,"neutral","GAL",235,"3","b.40",47
"636","MRGI0033",12,10,9,12,11,1991,906,0,1,"no_press","noGo",1,"win","NGW",236,"3","b.40",48
"637","MRGI0033",12,10,9,12,11,2106,641,0,1,"no_press","noGo",1,"win","NGW",237,"3","b.40",48
"638","MRGI0033",9,10,9,12,11,2326,651,507,0,"press","Go",1,"neutral","GAL",238,"3","b.40",48
"639","MRGI0033",10,10,9,12,11,2395,627,441,1,"press","Go",1,"win","GW",239,"3","b.40",48
"640","MRGI0033",9,10,9,12,11,1945,796,864,0,"press","Go",1,"neutral","GAL",240,"3","b.40",48
"641","MRGI0033",12,10,9,12,11,1254,740,0,1,"no_press","noGo",1,"win","NGW",241,"3","c.60",49
"642","MRGI0033",12,10,9,12,11,2156,739,0,1,"no_press","noGo",1,"win","NGW",242,"3","c.60",49
"643","MRGI0033",12,10,9,12,11,2396,546,0,1,"no_press","noGo",1,"win","NGW",243,"3","c.60",49
"644","MRGI0033",10,10,9,12,11,1588,667,497,0,"press","Go",1,"neutral","GW",244,"3","c.60",49
"645","MRGI0033",9,10,9,12,11,2994,767,531,0,"press","Go",1,"neutral","GAL",245,"3","c.60",49
"646","MRGI0033",11,10,9,12,11,1639,575,0,0,"no_press","noGo",1,"neutral","NGL",246,"3","c.60",50
"647","MRGI0033",9,10,9,12,11,2988,893,528,0,"press","Go",1,"neutral","GAL",247,"3","c.60",50
"648","MRGI0033",10,10,9,12,11,2358,737,515,1,"press","Go",1,"win","GW",248,"3","c.60",50
"649","MRGI0033",10,10,9,12,11,1787,950,875,1,"press","Go",1,"win","GW",249,"3","c.60",50
"650","MRGI0033",11,10,9,12,11,1132,987,0,-1,"no_press","noGo",1,"lose","NGL",250,"3","c.60",50
"651","MRGI0033",10,10,9,12,11,2603,687,561,1,"press","Go",1,"win","GW",251,"3","c.60",51
"652","MRGI0033",12,10,9,12,11,1269,646,0,1,"no_press","noGo",1,"win","NGW",252,"3","c.60",51
"653","MRGI0033",11,10,9,12,11,2211,540,0,0,"no_press","noGo",1,"neutral","NGL",253,"3","c.60",51
"654","MRGI0033",10,10,9,12,11,1284,671,402,1,"press","Go",1,"win","GW",254,"3","c.60",51
"655","MRGI0033",11,10,9,12,11,2117,624,0,0,"no_press","noGo",1,"neutral","NGL",255,"3","c.60",51
"656","MRGI0033",11,10,9,12,11,2476,588,0,0,"no_press","noGo",1,"neutral","NGL",256,"3","c.60",52
"657","MRGI0033",9,10,9,12,11,1258,721,425,-1,"press","Go",1,"lose","GAL",257,"3","c.60",52
"658","MRGI0033",12,10,9,12,11,1557,691,0,1,"no_press","noGo",1,"win","NGW",258,"3","c.60",52
"659","MRGI0033",10,10,9,12,11,2745,583,480,0,"press","Go",1,"neutral","GW",259,"3","c.60",52
"660","MRGI0033",10,10,9,12,11,1827,773,589,1,"press","Go",1,"win","GW",260,"3","c.60",52
"661","MRGI0033",11,10,9,12,11,1823,761,0,0,"no_press","noGo",1,"neutral","NGL",261,"3","d.80",53
"662","MRGI0033",12,10,9,12,11,1869,996,0,0,"no_press","noGo",1,"neutral","NGW",262,"3","d.80",53
"663","MRGI0033",12,10,9,12,11,3251,927,0,1,"no_press","noGo",1,"win","NGW",263,"3","d.80",53
"664","MRGI0033",9,10,9,12,11,1586,615,544,-1,"press","Go",1,"lose","GAL",264,"3","d.80",53
"665","MRGI0033",9,10,9,12,11,1987,599,1185,0,"press","Go",1,"neutral","GAL",265,"3","d.80",53
"666","MRGI0033",12,10,9,12,11,2744,862,0,0,"no_press","noGo",1,"neutral","NGW",266,"3","d.80",54
"667","MRGI0033",10,10,9,12,11,2151,931,519,1,"press","Go",1,"win","GW",267,"3","d.80",54
"668","MRGI0033",10,10,9,12,11,1475,505,537,1,"press","Go",1,"win","GW",268,"3","d.80",54
"669","MRGI0033",11,10,9,12,11,1813,507,0,0,"no_press","noGo",1,"neutral","NGL",269,"3","d.80",54
"670","MRGI0033",10,10,9,12,11,1618,573,569,0,"press","Go",1,"neutral","GW",270,"3","d.80",54
"671","MRGI0033",10,10,9,12,11,2039,727,404,1,"press","Go",1,"win","GW",271,"3","d.80",55
"672","MRGI0033",9,10,9,12,11,1757,876,590,-1,"press","Go",1,"lose","GAL",272,"3","d.80",55
"673","MRGI0033",11,10,9,12,11,1750,568,0,0,"no_press","noGo",1,"neutral","NGL",273,"3","d.80",55
"674","MRGI0033",11,10,9,12,11,3143,537,0,0,"no_press","noGo",1,"neutral","NGL",274,"3","d.80",55
"675","MRGI0033",11,10,9,12,11,1463,843,0,-1,"no_press","noGo",1,"lose","NGL",275,"3","d.80",55
"676","MRGI0033",12,10,9,12,11,1404,840,0,1,"no_press","noGo",1,"win","NGW",276,"3","d.80",56
"677","MRGI0033",12,10,9,12,11,3503,672,0,1,"no_press","noGo",1,"win","NGW",277,"3","d.80",56
"678","MRGI0033",12,10,9,12,11,2365,593,0,0,"no_press","noGo",1,"neutral","NGW",278,"3","d.80",56
"679","MRGI0033",11,10,9,12,11,1284,627,0,0,"no_press","noGo",1,"neutral","NGL",279,"3","d.80",56
"680","MRGI0033",11,10,9,12,11,1792,853,0,-1,"no_press","noGo",1,"lose","NGL",280,"3","d.80",56
"681","MRGI0033",11,10,9,12,11,1897,925,0,0,"no_press","noGo",1,"neutral","NGL",281,"3","e.100",57
"682","MRGI0033",9,10,9,12,11,1000,627,1514,-1,"press","Go",1,"lose","GAL",282,"3","e.100",57
"683","MRGI0033",10,10,9,12,11,1995,862,601,1,"press","Go",1,"win","GW",283,"3","e.100",57
"684","MRGI0033",11,10,9,12,11,2554,969,0,0,"no_press","noGo",1,"neutral","NGL",284,"3","e.100",57
"685","MRGI0033",11,10,9,12,11,1834,610,0,0,"no_press","noGo",1,"neutral","NGL",285,"3","e.100",57
"686","MRGI0033",9,10,9,12,11,3580,876,467,-1,"press","Go",1,"lose","GAL",286,"3","e.100",58
"687","MRGI0033",11,10,9,12,11,2526,708,0,0,"no_press","noGo",1,"neutral","NGL",287,"3","e.100",58
"688","MRGI0033",9,10,9,12,11,2431,599,508,0,"press","Go",1,"neutral","GAL",288,"3","e.100",58
"689","MRGI0033",10,10,9,12,11,2465,979,572,1,"press","Go",1,"win","GW",289,"3","e.100",58
"690","MRGI0033",10,10,9,12,11,1782,950,502,1,"press","Go",1,"win","GW",290,"3","e.100",58
"691","MRGI0033",10,10,9,12,11,1627,864,479,0,"press","Go",1,"neutral","GW",291,"3","e.100",59
"692","MRGI0033",9,10,9,12,11,1314,907,513,0,"press","Go",1,"neutral","GAL",292,"3","e.100",59
"693","MRGI0033",11,10,9,12,11,2448,627,0,0,"no_press","noGo",1,"neutral","NGL",293,"3","e.100",59
"694","MRGI0033",11,10,9,12,11,2765,908,0,0,"no_press","noGo",1,"neutral","NGL",294,"3","e.100",59
"695","MRGI0033",9,10,9,12,11,2663,646,612,0,"press","Go",1,"neutral","GAL",295,"3","e.100",59
"696","MRGI0033",12,10,9,12,11,1977,614,0,1,"no_press","noGo",1,"win","NGW",296,"3","e.100",60
"697","MRGI0033",10,10,9,12,11,1196,750,461,1,"press","Go",1,"win","GW",297,"3","e.100",60
"698","MRGI0033",12,10,9,12,11,2452,777,0,1,"no_press","noGo",1,"win","NGW",298,"3","e.100",60
"699","MRGI0033",10,10,9,12,11,2116,687,518,1,"press","Go",1,"win","GW",299,"3","e.100",60
"700","MRGI0033",12,10,9,12,11,2239,685,0,1,"no_press","noGo",1,"win","NGW",300,"3","e.100",60
"701","MRGI0033",15,14,15,16,13,1613,786,470,0,"press","Go",1,"neutral","GAL",301,"4","a.20",61
"702","MRGI0033",13,14,15,16,13,2311,682,361,-1,"press","noGo",0,"lose","NGL",302,"4","a.20",61
"703","MRGI0033",13,14,15,16,13,2604,792,301,-1,"press","noGo",0,"lose","NGL",303,"4","a.20",61
"704","MRGI0033",13,14,15,16,13,2673,990,0,-1,"no_press","noGo",1,"lose","NGL",304,"4","a.20",61
"705","MRGI0033",14,14,15,16,13,1490,861,546,1,"press","Go",1,"win","GW",305,"4","a.20",61
"706","MRGI0033",13,14,15,16,13,1288,572,0,-1,"no_press","noGo",1,"lose","NGL",306,"4","a.20",62
"707","MRGI0033",14,14,15,16,13,1582,869,566,1,"press","Go",1,"win","GW",307,"4","a.20",62
"708","MRGI0033",14,14,15,16,13,3661,547,619,1,"press","Go",1,"win","GW",308,"4","a.20",62
"709","MRGI0033",14,14,15,16,13,3386,578,491,1,"press","Go",1,"win","GW",309,"4","a.20",62
"710","MRGI0033",16,14,15,16,13,2605,782,499,0,"press","noGo",0,"neutral","NGW",310,"4","a.20",62
"711","MRGI0033",14,14,15,16,13,3554,993,544,1,"press","Go",1,"win","GW",311,"4","a.20",63
"712","MRGI0033",16,14,15,16,13,1400,700,0,1,"no_press","noGo",1,"win","NGW",312,"4","a.20",63
"713","MRGI0033",13,14,15,16,13,2650,917,487,-1,"press","noGo",0,"lose","NGL",313,"4","a.20",63
"714","MRGI0033",16,14,15,16,13,1957,781,0,1,"no_press","noGo",1,"win","NGW",314,"4","a.20",63
"715","MRGI0033",15,14,15,16,13,2412,794,0,-1,"no_press","Go",0,"lose","GAL",315,"4","a.20",63
"716","MRGI0033",13,14,15,16,13,1542,733,782,-1,"press","noGo",0,"lose","NGL",316,"4","a.20",64
"717","MRGI0033",13,14,15,16,13,3200,632,0,0,"no_press","noGo",1,"neutral","NGL",317,"4","a.20",64
"718","MRGI0033",15,14,15,16,13,2432,541,578,0,"press","Go",1,"neutral","GAL",318,"4","a.20",64
"719","MRGI0033",14,14,15,16,13,2069,682,479,1,"press","Go",1,"win","GW",319,"4","a.20",64
"720","MRGI0033",14,14,15,16,13,2888,756,650,1,"press","Go",1,"win","GW",320,"4","a.20",64
"721","MRGI0033",15,14,15,16,13,1210,683,588,-1,"press","Go",1,"lose","GAL",321,"4","b.40",65
"722","MRGI0033",16,14,15,16,13,1736,844,0,1,"no_press","noGo",1,"win","NGW",322,"4","b.40",65
"723","MRGI0033",14,14,15,16,13,2710,896,823,1,"press","Go",1,"win","GW",323,"4","b.40",65
"724","MRGI0033",16,14,15,16,13,2299,967,0,1,"no_press","noGo",1,"win","NGW",324,"4","b.40",65
"725","MRGI0033",15,14,15,16,13,5000,901,706,0,"press","Go",1,"neutral","GAL",325,"4","b.40",65
"726","MRGI0033",13,14,15,16,13,1854,668,0,0,"no_press","noGo",1,"neutral","NGL",326,"4","b.40",66
"727","MRGI0033",14,14,15,16,13,2441,754,0,0,"no_press","Go",0,"neutral","GW",327,"4","b.40",66
"728","MRGI0033",15,14,15,16,13,2139,550,599,-1,"press","Go",1,"lose","GAL",328,"4","b.40",66
"729","MRGI0033",16,14,15,16,13,3339,812,0,1,"no_press","noGo",1,"win","NGW",329,"4","b.40",66
"730","MRGI0033",13,14,15,16,13,2039,687,0,-1,"no_press","noGo",1,"lose","NGL",330,"4","b.40",66
"731","MRGI0033",13,14,15,16,13,2320,700,0,0,"no_press","noGo",1,"neutral","NGL",331,"4","b.40",67
"732","MRGI0033",16,14,15,16,13,2512,831,0,0,"no_press","noGo",1,"neutral","NGW",332,"4","b.40",67
"733","MRGI0033",13,14,15,16,13,2593,784,0,0,"no_press","noGo",1,"neutral","NGL",333,"4","b.40",67
"734","MRGI0033",13,14,15,16,13,2131,740,0,0,"no_press","noGo",1,"neutral","NGL",334,"4","b.40",67
"735","MRGI0033",13,14,15,16,13,1992,797,0,0,"no_press","noGo",1,"neutral","NGL",335,"4","b.40",67
"736","MRGI0033",15,14,15,16,13,1505,786,710,-1,"press","Go",1,"lose","GAL",336,"4","b.40",68
"737","MRGI0033",16,14,15,16,13,2785,654,0,1,"no_press","noGo",1,"win","NGW",337,"4","b.40",68
"738","MRGI0033",16,14,15,16,13,1325,681,0,1,"no_press","noGo",1,"win","NGW",338,"4","b.40",68
"739","MRGI0033",13,14,15,16,13,1719,595,0,-1,"no_press","noGo",1,"lose","NGL",339,"4","b.40",68
"740","MRGI0033",14,14,15,16,13,2484,634,476,1,"press","Go",1,"win","GW",340,"4","b.40",68
"741","MRGI0033",13,14,15,16,13,1996,697,0,0,"no_press","noGo",1,"neutral","NGL",341,"4","c.60",69
"742","MRGI0033",15,14,15,16,13,2433,841,775,0,"press","Go",1,"neutral","GAL",342,"4","c.60",69
"743","MRGI0033",16,14,15,16,13,1708,514,0,1,"no_press","noGo",1,"win","NGW",343,"4","c.60",69
"744","MRGI0033",13,14,15,16,13,1918,888,0,0,"no_press","noGo",1,"neutral","NGL",344,"4","c.60",69
"745","MRGI0033",16,14,15,16,13,2885,559,0,0,"no_press","noGo",1,"neutral","NGW",345,"4","c.60",69
"746","MRGI0033",15,14,15,16,13,1432,583,1010,0,"press","Go",1,"neutral","GAL",346,"4","c.60",70
"747","MRGI0033",15,14,15,16,13,1809,955,0,-1,"no_press","Go",0,"lose","GAL",347,"4","c.60",70
"748","MRGI0033",14,14,15,16,13,1741,863,552,1,"press","Go",1,"win","GW",348,"4","c.60",70
"749","MRGI0033",16,14,15,16,13,2208,832,0,1,"no_press","noGo",1,"win","NGW",349,"4","c.60",70
"750","MRGI0033",13,14,15,16,13,1477,913,0,-1,"no_press","noGo",1,"lose","NGL",350,"4","c.60",70
"751","MRGI0033",14,14,15,16,13,1453,525,550,1,"press","Go",1,"win","GW",351,"4","c.60",71
"752","MRGI0033",15,14,15,16,13,2154,637,531,-1,"press","Go",1,"lose","GAL",352,"4","c.60",71
"753","MRGI0033",16,14,15,16,13,2634,721,589,0,"press","noGo",0,"neutral","NGW",353,"4","c.60",71
"754","MRGI0033",16,14,15,16,13,2554,666,0,1,"no_press","noGo",1,"win","NGW",354,"4","c.60",71
"755","MRGI0033",16,14,15,16,13,1794,550,0,1,"no_press","noGo",1,"win","NGW",355,"4","c.60",71
"756","MRGI0033",15,14,15,16,13,1991,814,0,-1,"no_press","Go",0,"lose","GAL",356,"4","c.60",72
"757","MRGI0033",13,14,15,16,13,1766,882,0,0,"no_press","noGo",1,"neutral","NGL",357,"4","c.60",72
"758","MRGI0033",15,14,15,16,13,2144,850,585,0,"press","Go",1,"neutral","GAL",358,"4","c.60",72
"759","MRGI0033",14,14,15,16,13,2088,634,898,1,"press","Go",1,"win","GW",359,"4","c.60",72
"760","MRGI0033",15,14,15,16,13,2247,589,673,0,"press","Go",1,"neutral","GAL",360,"4","c.60",72
"761","MRGI0033",14,14,15,16,13,2514,735,441,1,"press","Go",1,"win","GW",361,"4","d.80",73
"762","MRGI0033",14,14,15,16,13,1221,635,481,0,"press","Go",1,"neutral","GW",362,"4","d.80",73
"763","MRGI0033",14,14,15,16,13,1439,882,392,1,"press","Go",1,"win","GW",363,"4","d.80",73
"764","MRGI0033",13,14,15,16,13,2344,933,0,0,"no_press","noGo",1,"neutral","NGL",364,"4","d.80",73
"765","MRGI0033",13,14,15,16,13,2240,592,0,0,"no_press","noGo",1,"neutral","NGL",365,"4","d.80",73
"766","MRGI0033",16,14,15,16,13,2868,746,0,1,"no_press","noGo",1,"win","NGW",366,"4","d.80",74
"767","MRGI0033",13,14,15,16,13,3084,941,0,0,"no_press","noGo",1,"neutral","NGL",367,"4","d.80",74
"768","MRGI0033",16,14,15,16,13,2533,614,0,1,"no_press","noGo",1,"win","NGW",368,"4","d.80",74
"769","MRGI0033",16,14,15,16,13,2750,834,0,1,"no_press","noGo",1,"win","NGW",369,"4","d.80",74
"770","MRGI0033",16,14,15,16,13,2125,525,0,1,"no_press","noGo",1,"win","NGW",370,"4","d.80",74
"771","MRGI0033",14,14,15,16,13,1834,565,621,0,"press","Go",1,"neutral","GW",371,"4","d.80",75
"772","MRGI0033",13,14,15,16,13,1676,656,0,0,"no_press","noGo",1,"neutral","NGL",372,"4","d.80",75
"773","MRGI0033",14,14,15,16,13,1631,904,638,0,"press","Go",1,"neutral","GW",373,"4","d.80",75
"774","MRGI0033",15,14,15,16,13,1651,597,680,0,"press","Go",1,"neutral","GAL",374,"4","d.80",75
"775","MRGI0033",16,14,15,16,13,1000,536,0,0,"no_press","noGo",1,"neutral","NGW",375,"4","d.80",75
"776","MRGI0033",16,14,15,16,13,2734,924,0,1,"no_press","noGo",1,"win","NGW",376,"4","d.80",76
"777","MRGI0033",15,14,15,16,13,2752,878,535,0,"press","Go",1,"neutral","GAL",377,"4","d.80",76
"778","MRGI0033",13,14,15,16,13,1857,925,0,0,"no_press","noGo",1,"neutral","NGL",378,"4","d.80",76
"779","MRGI0033",14,14,15,16,13,2685,776,486,1,"press","Go",1,"win","GW",379,"4","d.80",76
"780","MRGI0033",14,14,15,16,13,1855,719,406,0,"press","Go",1,"neutral","GW",380,"4","d.80",76
"781","MRGI0033",14,14,15,16,13,3125,540,521,1,"press","Go",1,"win","GW",381,"4","e.100",77
"782","MRGI0033",15,14,15,16,13,2780,563,443,0,"press","Go",1,"neutral","GAL",382,"4","e.100",77
"783","MRGI0033",16,14,15,16,13,2253,608,834,1,"press","noGo",0,"win","NGW",383,"4","e.100",77
"784","MRGI0033",15,14,15,16,13,2049,656,618,0,"press","Go",1,"neutral","GAL",384,"4","e.100",77
"785","MRGI0033",15,14,15,16,13,2119,647,735,0,"press","Go",1,"neutral","GAL",385,"4","e.100",77
"786","MRGI0033",14,14,15,16,13,2431,850,507,1,"press","Go",1,"win","GW",386,"4","e.100",78
"787","MRGI0033",13,14,15,16,13,2430,796,0,0,"no_press","noGo",1,"neutral","NGL",387,"4","e.100",78
"788","MRGI0033",14,14,15,16,13,1987,598,497,1,"press","Go",1,"win","GW",388,"4","e.100",78
"789","MRGI0033",16,14,15,16,13,2004,595,0,0,"no_press","noGo",1,"neutral","NGW",389,"4","e.100",78
"790","MRGI0033",15,14,15,16,13,1789,613,581,0,"press","Go",1,"neutral","GAL",390,"4","e.100",78
"791","MRGI0033",15,14,15,16,13,2216,720,819,0,"press","Go",1,"neutral","GAL",391,"4","e.100",79
"792","MRGI0033",14,14,15,16,13,1488,861,644,1,"press","Go",1,"win","GW",392,"4","e.100",79
"793","MRGI0033",16,14,15,16,13,1304,670,420,0,"press","noGo",0,"neutral","NGW",393,"4","e.100",79
"794","MRGI0033",15,14,15,16,13,2531,556,504,0,"press","Go",1,"neutral","GAL",394,"4","e.100",79
"795","MRGI0033",14,14,15,16,13,1868,780,495,0,"press","Go",1,"neutral","GW",395,"4","e.100",79
"796","MRGI0033",16,14,15,16,13,1241,859,0,1,"no_press","noGo",1,"win","NGW",396,"4","e.100",80
"797","MRGI0033",15,14,15,16,13,2256,814,571,-1,"press","Go",1,"lose","GAL",397,"4","e.100",80
"798","MRGI0033",15,14,15,16,13,1419,961,1247,0,"press","Go",1,"neutral","GAL",398,"4","e.100",80
"799","MRGI0033",15,14,15,16,13,3223,616,465,0,"press","Go",1,"neutral","GAL",399,"4","e.100",80
"800","MRGI0033",13,14,15,16,13,1982,773,0,0,"no_press","noGo",1,"neutral","NGL",400,"4","e.100",80
"801","RBCV1656",2,2,1,4,3,2369,578,1219,1,"press","Go",1,"win","GW",1,"1","a.20",1
"802","RBCV1656",1,2,1,4,3,1596,732,718,0,"press","Go",1,"neutral","GAL",2,"1","a.20",1
"803","RBCV1656",2,2,1,4,3,2645,523,698,0,"press","Go",1,"neutral","GW",3,"1","a.20",1
"804","RBCV1656",3,2,1,4,3,2381,789,711,-1,"press","noGo",0,"lose","NGL",4,"1","a.20",1
"805","RBCV1656",1,2,1,4,3,1879,617,721,0,"press","Go",1,"neutral","GAL",5,"1","a.20",1
"806","RBCV1656",4,2,1,4,3,2822,555,1041,0,"press","noGo",0,"neutral","NGW",6,"1","a.20",2
"807","RBCV1656",2,2,1,4,3,2184,545,718,0,"press","Go",1,"neutral","GW",7,"1","a.20",2
"808","RBCV1656",2,2,1,4,3,1635,759,0,0,"no_press","Go",0,"neutral","GW",8,"1","a.20",2
"809","RBCV1656",2,2,1,4,3,1941,690,0,1,"no_press","Go",0,"win","GW",9,"1","a.20",2
"810","RBCV1656",1,2,1,4,3,1763,685,0,-1,"no_press","Go",0,"lose","GAL",10,"1","a.20",2
"811","RBCV1656",1,2,1,4,3,3279,598,822,0,"press","Go",1,"neutral","GAL",11,"1","a.20",3
"812","RBCV1656",2,2,1,4,3,2323,666,1253,1,"press","Go",1,"win","GW",12,"1","a.20",3
"813","RBCV1656",3,2,1,4,3,1576,959,0,0,"no_press","noGo",1,"neutral","NGL",13,"1","a.20",3
"814","RBCV1656",1,2,1,4,3,1761,934,1145,-1,"press","Go",1,"lose","GAL",14,"1","a.20",3
"815","RBCV1656",3,2,1,4,3,1614,962,690,-1,"press","noGo",0,"lose","NGL",15,"1","a.20",3
"816","RBCV1656",1,2,1,4,3,1826,882,0,-1,"no_press","Go",0,"lose","GAL",16,"1","a.20",4
"817","RBCV1656",4,2,1,4,3,2372,885,540,0,"press","noGo",0,"neutral","NGW",17,"1","a.20",4
"818","RBCV1656",1,2,1,4,3,1463,544,736,-1,"press","Go",1,"lose","GAL",18,"1","a.20",4
"819","RBCV1656",2,2,1,4,3,1966,562,602,1,"press","Go",1,"win","GW",19,"1","a.20",4
"820","RBCV1656",3,2,1,4,3,2122,648,783,0,"press","noGo",0,"neutral","NGL",20,"1","a.20",4
"821","RBCV1656",2,2,1,4,3,1802,663,608,1,"press","Go",1,"win","GW",21,"1","b.40",5
"822","RBCV1656",1,2,1,4,3,2040,568,0,-1,"no_press","Go",0,"lose","GAL",22,"1","b.40",5
"823","RBCV1656",3,2,1,4,3,2207,883,0,-1,"no_press","noGo",1,"lose","NGL",23,"1","b.40",5
"824","RBCV1656",2,2,1,4,3,2145,849,653,1,"press","Go",1,"win","GW",24,"1","b.40",5
"825","RBCV1656",1,2,1,4,3,2032,643,491,0,"press","Go",1,"neutral","GAL",25,"1","b.40",5
"826","RBCV1656",3,2,1,4,3,1238,513,788,-1,"press","noGo",0,"lose","NGL",26,"1","b.40",6
"827","RBCV1656",3,2,1,4,3,2164,632,0,0,"no_press","noGo",1,"neutral","NGL",27,"1","b.40",6
"828","RBCV1656",1,2,1,4,3,2088,958,669,-1,"press","Go",1,"lose","GAL",28,"1","b.40",6
"829","RBCV1656",3,2,1,4,3,1588,655,0,0,"no_press","noGo",1,"neutral","NGL",29,"1","b.40",6
"830","RBCV1656",4,2,1,4,3,2224,669,872,0,"press","noGo",0,"neutral","NGW",30,"1","b.40",6
"831","RBCV1656",1,2,1,4,3,2274,685,0,-1,"no_press","Go",0,"lose","GAL",31,"1","b.40",7
"832","RBCV1656",1,2,1,4,3,2344,797,677,0,"press","Go",1,"neutral","GAL",32,"1","b.40",7
"833","RBCV1656",3,2,1,4,3,2381,943,0,-1,"no_press","noGo",1,"lose","NGL",33,"1","b.40",7
"834","RBCV1656",3,2,1,4,3,1678,828,673,-1,"press","noGo",0,"lose","NGL",34,"1","b.40",7
"835","RBCV1656",2,2,1,4,3,2019,842,604,0,"press","Go",1,"neutral","GW",35,"1","b.40",7
"836","RBCV1656",4,2,1,4,3,2864,513,0,1,"no_press","noGo",1,"win","NGW",36,"1","b.40",8
"837","RBCV1656",2,2,1,4,3,2388,947,540,1,"press","Go",1,"win","GW",37,"1","b.40",8
"838","RBCV1656",2,2,1,4,3,2386,693,532,1,"press","Go",1,"win","GW",38,"1","b.40",8
"839","RBCV1656",4,2,1,4,3,1592,587,1037,0,"press","noGo",0,"neutral","NGW",39,"1","b.40",8
"840","RBCV1656",4,2,1,4,3,1674,511,553,0,"press","noGo",0,"neutral","NGW",40,"1","b.40",8
"841","RBCV1656",1,2,1,4,3,1746,768,0,-1,"no_press","Go",0,"lose","GAL",41,"1","c.60",9
"842","RBCV1656",2,2,1,4,3,2887,733,605,1,"press","Go",1,"win","GW",42,"1","c.60",9
"843","RBCV1656",4,2,1,4,3,2283,706,591,0,"press","noGo",0,"neutral","NGW",43,"1","c.60",9
"844","RBCV1656",3,2,1,4,3,1267,779,0,0,"no_press","noGo",1,"neutral","NGL",44,"1","c.60",9
"845","RBCV1656",3,2,1,4,3,2444,672,0,0,"no_press","noGo",1,"neutral","NGL",45,"1","c.60",9
"846","RBCV1656",4,2,1,4,3,2266,557,580,0,"press","noGo",0,"neutral","NGW",46,"1","c.60",10
"847","RBCV1656",4,2,1,4,3,1779,894,0,1,"no_press","noGo",1,"win","NGW",47,"1","c.60",10
"848","RBCV1656",3,2,1,4,3,2087,676,1061,0,"press","noGo",0,"neutral","NGL",48,"1","c.60",10
"849","RBCV1656",4,2,1,4,3,2008,826,0,1,"no_press","noGo",1,"win","NGW",49,"1","c.60",10
"850","RBCV1656",3,2,1,4,3,1597,561,1061,-1,"press","noGo",0,"lose","NGL",50,"1","c.60",10
"851","RBCV1656",1,2,1,4,3,1807,737,1345,0,"press","Go",1,"neutral","GAL",51,"1","c.60",11
"852","RBCV1656",2,2,1,4,3,2490,811,521,1,"press","Go",1,"win","GW",52,"1","c.60",11
"853","RBCV1656",3,2,1,4,3,2072,827,722,0,"press","noGo",0,"neutral","NGL",53,"1","c.60",11
"854","RBCV1656",4,2,1,4,3,1951,546,0,1,"no_press","noGo",1,"win","NGW",54,"1","c.60",11
"855","RBCV1656",1,2,1,4,3,1936,526,981,0,"press","Go",1,"neutral","GAL",55,"1","c.60",11
"856","RBCV1656",4,2,1,4,3,2380,866,0,0,"no_press","noGo",1,"neutral","NGW",56,"1","c.60",12
"857","RBCV1656",3,2,1,4,3,1237,875,1030,-1,"press","noGo",0,"lose","NGL",57,"1","c.60",12
"858","RBCV1656",3,2,1,4,3,1495,859,0,0,"no_press","noGo",1,"neutral","NGL",58,"1","c.60",12
"859","RBCV1656",4,2,1,4,3,2304,701,0,0,"no_press","noGo",1,"neutral","NGW",59,"1","c.60",12
"860","RBCV1656",2,2,1,4,3,1965,699,526,1,"press","Go",1,"win","GW",60,"1","c.60",12
"861","RBCV1656",1,2,1,4,3,2247,643,836,0,"press","Go",1,"neutral","GAL",61,"1","d.80",13
"862","RBCV1656",1,2,1,4,3,2402,833,803,-1,"press","Go",1,"lose","GAL",62,"1","d.80",13
"863","RBCV1656",4,2,1,4,3,1318,863,859,0,"press","noGo",0,"neutral","NGW",63,"1","d.80",13
"864","RBCV1656",2,2,1,4,3,1385,659,525,1,"press","Go",1,"win","GW",64,"1","d.80",13
"865","RBCV1656",4,2,1,4,3,1461,986,616,0,"press","noGo",0,"neutral","NGW",65,"1","d.80",13
"866","RBCV1656",4,2,1,4,3,2451,805,525,1,"press","noGo",0,"win","NGW",66,"1","d.80",14
"867","RBCV1656",3,2,1,4,3,1864,598,0,0,"no_press","noGo",1,"neutral","NGL",67,"1","d.80",14
"868","RBCV1656",2,2,1,4,3,2287,545,486,0,"press","Go",1,"neutral","GW",68,"1","d.80",14
"869","RBCV1656",4,2,1,4,3,2129,606,0,1,"no_press","noGo",1,"win","NGW",69,"1","d.80",14
"870","RBCV1656",2,2,1,4,3,1752,974,0,0,"no_press","Go",0,"neutral","GW",70,"1","d.80",14
"871","RBCV1656",3,2,1,4,3,1759,949,0,0,"no_press","noGo",1,"neutral","NGL",71,"1","d.80",15
"872","RBCV1656",4,2,1,4,3,2195,580,0,1,"no_press","noGo",1,"win","NGW",72,"1","d.80",15
"873","RBCV1656",1,2,1,4,3,2285,686,0,-1,"no_press","Go",0,"lose","GAL",73,"1","d.80",15
"874","RBCV1656",3,2,1,4,3,1494,596,0,0,"no_press","noGo",1,"neutral","NGL",74,"1","d.80",15
"875","RBCV1656",4,2,1,4,3,3016,924,0,0,"no_press","noGo",1,"neutral","NGW",75,"1","d.80",15
"876","RBCV1656",1,2,1,4,3,1552,644,722,0,"press","Go",1,"neutral","GAL",76,"1","d.80",16
"877","RBCV1656",1,2,1,4,3,1743,538,574,0,"press","Go",1,"neutral","GAL",77,"1","d.80",16
"878","RBCV1656",3,2,1,4,3,1191,554,0,0,"no_press","noGo",1,"neutral","NGL",78,"1","d.80",16
"879","RBCV1656",4,2,1,4,3,1784,580,814,1,"press","noGo",0,"win","NGW",79,"1","d.80",16
"880","RBCV1656",3,2,1,4,3,1266,615,0,0,"no_press","noGo",1,"neutral","NGL",80,"1","d.80",16
"881","RBCV1656",1,2,1,4,3,1433,617,645,0,"press","Go",1,"neutral","GAL",81,"1","e.100",17
"882","RBCV1656",2,2,1,4,3,1598,876,516,1,"press","Go",1,"win","GW",82,"1","e.100",17
"883","RBCV1656",3,2,1,4,3,2977,839,0,0,"no_press","noGo",1,"neutral","NGL",83,"1","e.100",17
"884","RBCV1656",2,2,1,4,3,1503,503,597,1,"press","Go",1,"win","GW",84,"1","e.100",17
"885","RBCV1656",3,2,1,4,3,1346,988,0,0,"no_press","noGo",1,"neutral","NGL",85,"1","e.100",17
"886","RBCV1656",3,2,1,4,3,1504,981,0,0,"no_press","noGo",1,"neutral","NGL",86,"1","e.100",18
"887","RBCV1656",1,2,1,4,3,1445,546,587,0,"press","Go",1,"neutral","GAL",87,"1","e.100",18
"888","RBCV1656",4,2,1,4,3,1467,841,0,1,"no_press","noGo",1,"win","NGW",88,"1","e.100",18
"889","RBCV1656",2,2,1,4,3,1546,845,484,1,"press","Go",1,"win","GW",89,"1","e.100",18
"890","RBCV1656",4,2,1,4,3,1842,598,889,0,"press","noGo",0,"neutral","NGW",90,"1","e.100",18
"891","RBCV1656",4,2,1,4,3,1932,631,0,1,"no_press","noGo",1,"win","NGW",91,"1","e.100",19
"892","RBCV1656",1,2,1,4,3,2228,843,653,-1,"press","Go",1,"lose","GAL",92,"1","e.100",19
"893","RBCV1656",4,2,1,4,3,2493,722,591,0,"press","noGo",0,"neutral","NGW",93,"1","e.100",19
"894","RBCV1656",2,2,1,4,3,2785,804,626,1,"press","Go",1,"win","GW",94,"1","e.100",19
"895","RBCV1656",1,2,1,4,3,3515,950,576,0,"press","Go",1,"neutral","GAL",95,"1","e.100",19
"896","RBCV1656",1,2,1,4,3,3020,864,0,-1,"no_press","Go",0,"lose","GAL",96,"1","e.100",20
"897","RBCV1656",2,2,1,4,3,2234,856,527,1,"press","Go",1,"win","GW",97,"1","e.100",20
"898","RBCV1656",2,2,1,4,3,1166,536,571,1,"press","Go",1,"win","GW",98,"1","e.100",20
"899","RBCV1656",4,2,1,4,3,1932,588,0,1,"no_press","noGo",1,"win","NGW",99,"1","e.100",20
"900","RBCV1656",2,2,1,4,3,1795,529,553,1,"press","Go",1,"win","GW",100,"1","e.100",20
"901","RBCV1656",6,6,7,8,5,1000,566,868,1,"press","Go",1,"win","GW",101,"2","a.20",21
"902","RBCV1656",8,6,7,8,5,1613,574,349,0,"press","noGo",0,"neutral","NGW",102,"2","a.20",21
"903","RBCV1656",8,6,7,8,5,2080,927,0,1,"no_press","noGo",1,"win","NGW",103,"2","a.20",21
"904","RBCV1656",7,6,7,8,5,2538,927,629,0,"press","Go",1,"neutral","GAL",104,"2","a.20",21
"905","RBCV1656",5,6,7,8,5,1693,878,542,-1,"press","noGo",0,"lose","NGL",105,"2","a.20",21
"906","RBCV1656",5,6,7,8,5,2306,635,0,-1,"no_press","noGo",1,"lose","NGL",106,"2","a.20",22
"907","RBCV1656",8,6,7,8,5,1536,521,795,0,"press","noGo",0,"neutral","NGW",107,"2","a.20",22
"908","RBCV1656",5,6,7,8,5,1246,544,0,0,"no_press","noGo",1,"neutral","NGL",108,"2","a.20",22
"909","RBCV1656",5,6,7,8,5,2277,653,0,0,"no_press","noGo",1,"neutral","NGL",109,"2","a.20",22
"910","RBCV1656",7,6,7,8,5,1275,993,0,-1,"no_press","Go",0,"lose","GAL",110,"2","a.20",22
"911","RBCV1656",5,6,7,8,5,2257,513,0,-1,"no_press","noGo",1,"lose","NGL",111,"2","a.20",23
"912","RBCV1656",5,6,7,8,5,1509,800,0,0,"no_press","noGo",1,"neutral","NGL",112,"2","a.20",23
"913","RBCV1656",6,6,7,8,5,1842,916,947,0,"press","Go",1,"neutral","GW",113,"2","a.20",23
"914","RBCV1656",8,6,7,8,5,1000,794,841,0,"press","noGo",0,"neutral","NGW",114,"2","a.20",23
"915","RBCV1656",6,6,7,8,5,2234,910,0,0,"no_press","Go",0,"neutral","GW",115,"2","a.20",23
"916","RBCV1656",8,6,7,8,5,1329,963,0,1,"no_press","noGo",1,"win","NGW",116,"2","a.20",24
"917","RBCV1656",5,6,7,8,5,2528,884,0,0,"no_press","noGo",1,"neutral","NGL",117,"2","a.20",24
"918","RBCV1656",6,6,7,8,5,2074,641,1124,1,"press","Go",1,"win","GW",118,"2","a.20",24
"919","RBCV1656",8,6,7,8,5,1885,899,0,1,"no_press","noGo",1,"win","NGW",119,"2","a.20",24
"920","RBCV1656",6,6,7,8,5,1885,968,0,0,"no_press","Go",0,"neutral","GW",120,"2","a.20",24
"921","RBCV1656",5,6,7,8,5,1289,745,0,0,"no_press","noGo",1,"neutral","NGL",121,"2","b.40",25
"922","RBCV1656",7,6,7,8,5,1554,916,726,0,"press","Go",1,"neutral","GAL",122,"2","b.40",25
"923","RBCV1656",6,6,7,8,5,2335,644,921,1,"press","Go",1,"win","GW",123,"2","b.40",25
"924","RBCV1656",7,6,7,8,5,1491,710,457,0,"press","Go",1,"neutral","GAL",124,"2","b.40",25
"925","RBCV1656",7,6,7,8,5,1885,701,595,0,"press","Go",1,"neutral","GAL",125,"2","b.40",25
"926","RBCV1656",7,6,7,8,5,1825,602,542,-1,"press","Go",1,"lose","GAL",126,"2","b.40",26
"927","RBCV1656",5,6,7,8,5,2818,592,0,0,"no_press","noGo",1,"neutral","NGL",127,"2","b.40",26
"928","RBCV1656",7,6,7,8,5,1824,724,0,-1,"no_press","Go",0,"lose","GAL",128,"2","b.40",26
"929","RBCV1656",6,6,7,8,5,1771,731,523,0,"press","Go",1,"neutral","GW",129,"2","b.40",26
"930","RBCV1656",7,6,7,8,5,1368,841,612,0,"press","Go",1,"neutral","GAL",130,"2","b.40",26
"931","RBCV1656",7,6,7,8,5,2724,905,406,0,"press","Go",1,"neutral","GAL",131,"2","b.40",27
"932","RBCV1656",8,6,7,8,5,1452,684,0,1,"no_press","noGo",1,"win","NGW",132,"2","b.40",27
"933","RBCV1656",7,6,7,8,5,2464,864,581,0,"press","Go",1,"neutral","GAL",133,"2","b.40",27
"934","RBCV1656",5,6,7,8,5,1773,929,0,0,"no_press","noGo",1,"neutral","NGL",134,"2","b.40",27
"935","RBCV1656",5,6,7,8,5,2252,722,0,-1,"no_press","noGo",1,"lose","NGL",135,"2","b.40",27
"936","RBCV1656",8,6,7,8,5,1861,712,0,1,"no_press","noGo",1,"win","NGW",136,"2","b.40",28
"937","RBCV1656",7,6,7,8,5,2041,942,688,-1,"press","Go",1,"lose","GAL",137,"2","b.40",28
"938","RBCV1656",8,6,7,8,5,2034,753,0,1,"no_press","noGo",1,"win","NGW",138,"2","b.40",28
"939","RBCV1656",5,6,7,8,5,2066,933,0,0,"no_press","noGo",1,"neutral","NGL",139,"2","b.40",28
"940","RBCV1656",8,6,7,8,5,1537,864,0,1,"no_press","noGo",1,"win","NGW",140,"2","b.40",28
"941","RBCV1656",6,6,7,8,5,1485,907,650,1,"press","Go",1,"win","GW",141,"2","c.60",29
"942","RBCV1656",8,6,7,8,5,1338,721,0,0,"no_press","noGo",1,"neutral","NGW",142,"2","c.60",29
"943","RBCV1656",6,6,7,8,5,2337,697,492,1,"press","Go",1,"win","GW",143,"2","c.60",29
"944","RBCV1656",6,6,7,8,5,2615,984,538,1,"press","Go",1,"win","GW",144,"2","c.60",29
"945","RBCV1656",8,6,7,8,5,1715,517,0,1,"no_press","noGo",1,"win","NGW",145,"2","c.60",29
"946","RBCV1656",6,6,7,8,5,2745,829,492,1,"press","Go",1,"win","GW",146,"2","c.60",30
"947","RBCV1656",8,6,7,8,5,2066,984,0,0,"no_press","noGo",1,"neutral","NGW",147,"2","c.60",30
"948","RBCV1656",8,6,7,8,5,1671,705,852,0,"press","noGo",0,"neutral","NGW",148,"2","c.60",30
"949","RBCV1656",8,6,7,8,5,2817,647,553,0,"press","noGo",0,"neutral","NGW",149,"2","c.60",30
"950","RBCV1656",6,6,7,8,5,1511,924,546,1,"press","Go",1,"win","GW",150,"2","c.60",30
"951","RBCV1656",7,6,7,8,5,2299,986,774,0,"press","Go",1,"neutral","GAL",151,"2","c.60",31
"952","RBCV1656",5,6,7,8,5,1678,592,770,-1,"press","noGo",0,"lose","NGL",152,"2","c.60",31
"953","RBCV1656",6,6,7,8,5,2129,630,564,1,"press","Go",1,"win","GW",153,"2","c.60",31
"954","RBCV1656",5,6,7,8,5,1795,584,0,0,"no_press","noGo",1,"neutral","NGL",154,"2","c.60",31
"955","RBCV1656",6,6,7,8,5,2930,560,674,0,"press","Go",1,"neutral","GW",155,"2","c.60",31
"956","RBCV1656",7,6,7,8,5,1453,693,0,-1,"no_press","Go",0,"lose","GAL",156,"2","c.60",32
"957","RBCV1656",5,6,7,8,5,2980,950,0,0,"no_press","noGo",1,"neutral","NGL",157,"2","c.60",32
"958","RBCV1656",5,6,7,8,5,2206,808,0,-1,"no_press","noGo",1,"lose","NGL",158,"2","c.60",32
"959","RBCV1656",5,6,7,8,5,1992,596,0,0,"no_press","noGo",1,"neutral","NGL",159,"2","c.60",32
"960","RBCV1656",5,6,7,8,5,2524,874,0,-1,"no_press","noGo",1,"lose","NGL",160,"2","c.60",32
"961","RBCV1656",7,6,7,8,5,1364,870,637,0,"press","Go",1,"neutral","GAL",161,"2","d.80",33
"962","RBCV1656",8,6,7,8,5,1330,875,0,0,"no_press","noGo",1,"neutral","NGW",162,"2","d.80",33
"963","RBCV1656",8,6,7,8,5,2615,884,0,1,"no_press","noGo",1,"win","NGW",163,"2","d.80",33
"964","RBCV1656",5,6,7,8,5,2323,947,0,0,"no_press","noGo",1,"neutral","NGL",164,"2","d.80",33
"965","RBCV1656",6,6,7,8,5,2650,905,469,1,"press","Go",1,"win","GW",165,"2","d.80",33
"966","RBCV1656",6,6,7,8,5,1942,995,647,1,"press","Go",1,"win","GW",166,"2","d.80",34
"967","RBCV1656",8,6,7,8,5,2836,932,0,0,"no_press","noGo",1,"neutral","NGW",167,"2","d.80",34
"968","RBCV1656",8,6,7,8,5,1753,632,0,1,"no_press","noGo",1,"win","NGW",168,"2","d.80",34
"969","RBCV1656",8,6,7,8,5,1505,811,0,0,"no_press","noGo",1,"neutral","NGW",169,"2","d.80",34
"970","RBCV1656",8,6,7,8,5,1423,597,0,1,"no_press","noGo",1,"win","NGW",170,"2","d.80",34
"971","RBCV1656",7,6,7,8,5,1729,955,613,0,"press","Go",1,"neutral","GAL",171,"2","d.80",35
"972","RBCV1656",7,6,7,8,5,2588,980,518,0,"press","Go",1,"neutral","GAL",172,"2","d.80",35
"973","RBCV1656",8,6,7,8,5,1990,619,0,1,"no_press","noGo",1,"win","NGW",173,"2","d.80",35
"974","RBCV1656",7,6,7,8,5,3099,939,639,-1,"press","Go",1,"lose","GAL",174,"2","d.80",35
"975","RBCV1656",5,6,7,8,5,2964,742,0,0,"no_press","noGo",1,"neutral","NGL",175,"2","d.80",35
"976","RBCV1656",6,6,7,8,5,2018,871,508,1,"press","Go",1,"win","GW",176,"2","d.80",36
"977","RBCV1656",7,6,7,8,5,1344,827,550,-1,"press","Go",1,"lose","GAL",177,"2","d.80",36
"978","RBCV1656",8,6,7,8,5,1555,956,0,1,"no_press","noGo",1,"win","NGW",178,"2","d.80",36
"979","RBCV1656",6,6,7,8,5,2579,705,517,0,"press","Go",1,"neutral","GW",179,"2","d.80",36
"980","RBCV1656",5,6,7,8,5,1504,919,0,0,"no_press","noGo",1,"neutral","NGL",180,"2","d.80",36
"981","RBCV1656",6,6,7,8,5,1848,818,426,1,"press","Go",1,"win","GW",181,"2","e.100",37
"982","RBCV1656",6,6,7,8,5,1702,545,480,1,"press","Go",1,"win","GW",182,"2","e.100",37
"983","RBCV1656",6,6,7,8,5,1204,947,501,1,"press","Go",1,"win","GW",183,"2","e.100",37
"984","RBCV1656",5,6,7,8,5,1959,526,0,0,"no_press","noGo",1,"neutral","NGL",184,"2","e.100",37
"985","RBCV1656",5,6,7,8,5,2336,533,0,0,"no_press","noGo",1,"neutral","NGL",185,"2","e.100",37
"986","RBCV1656",7,6,7,8,5,2319,644,576,0,"press","Go",1,"neutral","GAL",186,"2","e.100",38
"987","RBCV1656",7,6,7,8,5,2315,784,519,-1,"press","Go",1,"lose","GAL",187,"2","e.100",38
"988","RBCV1656",8,6,7,8,5,2218,740,0,1,"no_press","noGo",1,"win","NGW",188,"2","e.100",38
"989","RBCV1656",7,6,7,8,5,2518,859,808,0,"press","Go",1,"neutral","GAL",189,"2","e.100",38
"990","RBCV1656",6,6,7,8,5,1693,746,537,0,"press","Go",1,"neutral","GW",190,"2","e.100",38
"991","RBCV1656",7,6,7,8,5,1942,768,583,0,"press","Go",1,"neutral","GAL",191,"2","e.100",39
"992","RBCV1656",7,6,7,8,5,2330,990,638,0,"press","Go",1,"neutral","GAL",192,"2","e.100",39
"993","RBCV1656",6,6,7,8,5,2125,672,490,1,"press","Go",1,"win","GW",193,"2","e.100",39
"994","RBCV1656",5,6,7,8,5,2359,649,0,0,"no_press","noGo",1,"neutral","NGL",194,"2","e.100",39
"995","RBCV1656",7,6,7,8,5,1785,804,657,0,"press","Go",1,"neutral","GAL",195,"2","e.100",39
"996","RBCV1656",7,6,7,8,5,2942,640,680,0,"press","Go",1,"neutral","GAL",196,"2","e.100",40
"997","RBCV1656",8,6,7,8,5,2257,886,0,1,"no_press","noGo",1,"win","NGW",197,"2","e.100",40
"998","RBCV1656",6,6,7,8,5,2700,774,451,1,"press","Go",1,"win","GW",198,"2","e.100",40
"999","RBCV1656",6,6,7,8,5,2237,968,469,1,"press","Go",1,"win","GW",199,"2","e.100",40
"1000","RBCV1656",5,6,7,8,5,1000,680,0,0,"no_press","noGo",1,"neutral","NGL",200,"2","e.100",40
"1001","RBCV1656",9,12,11,10,9,2298,628,661,-1,"press","noGo",0,"lose","NGL",201,"3","a.20",41
"1002","RBCV1656",9,12,11,10,9,1196,641,0,0,"no_press","noGo",1,"neutral","NGL",202,"3","a.20",41
"1003","RBCV1656",11,12,11,10,9,2239,712,682,0,"press","Go",1,"neutral","GAL",203,"3","a.20",41
"1004","RBCV1656",9,12,11,10,9,1288,783,0,0,"no_press","noGo",1,"neutral","NGL",204,"3","a.20",41
"1005","RBCV1656",10,12,11,10,9,1289,558,0,1,"no_press","noGo",1,"win","NGW",205,"3","a.20",41
"1006","RBCV1656",10,12,11,10,9,1847,705,0,0,"no_press","noGo",1,"neutral","NGW",206,"3","a.20",42
"1007","RBCV1656",11,12,11,10,9,1938,910,0,-1,"no_press","Go",0,"lose","GAL",207,"3","a.20",42
"1008","RBCV1656",12,12,11,10,9,2000,632,0,0,"no_press","Go",0,"neutral","GW",208,"3","a.20",42
"1009","RBCV1656",11,12,11,10,9,1509,872,977,-1,"press","Go",1,"lose","GAL",209,"3","a.20",42
"1010","RBCV1656",12,12,11,10,9,2169,828,694,1,"press","Go",1,"win","GW",210,"3","a.20",42
"1011","RBCV1656",12,12,11,10,9,2019,760,777,0,"press","Go",1,"neutral","GW",211,"3","a.20",43
"1012","RBCV1656",9,12,11,10,9,1847,871,0,0,"no_press","noGo",1,"neutral","NGL",212,"3","a.20",43
"1013","RBCV1656",11,12,11,10,9,1630,988,773,-1,"press","Go",1,"lose","GAL",213,"3","a.20",43
"1014","RBCV1656",9,12,11,10,9,2140,875,27,-1,"press","noGo",0,"lose","NGL",214,"3","a.20",43
"1015","RBCV1656",10,12,11,10,9,1187,736,1358,0,"press","noGo",0,"neutral","NGW",215,"3","a.20",43
"1016","RBCV1656",10,12,11,10,9,1547,735,0,1,"no_press","noGo",1,"win","NGW",216,"3","a.20",44
"1017","RBCV1656",11,12,11,10,9,2776,771,0,-1,"no_press","Go",0,"lose","GAL",217,"3","a.20",44
"1018","RBCV1656",10,12,11,10,9,1666,514,0,0,"no_press","noGo",1,"neutral","NGW",218,"3","a.20",44
"1019","RBCV1656",11,12,11,10,9,1922,545,932,0,"press","Go",1,"neutral","GAL",219,"3","a.20",44
"1020","RBCV1656",9,12,11,10,9,2085,598,0,0,"no_press","noGo",1,"neutral","NGL",220,"3","a.20",44
"1021","RBCV1656",12,12,11,10,9,1954,634,531,1,"press","Go",1,"win","GW",221,"3","b.40",45
"1022","RBCV1656",10,12,11,10,9,1229,580,0,1,"no_press","noGo",1,"win","NGW",222,"3","b.40",45
"1023","RBCV1656",12,12,11,10,9,1250,828,625,0,"press","Go",1,"neutral","GW",223,"3","b.40",45
"1024","RBCV1656",12,12,11,10,9,1715,504,532,1,"press","Go",1,"win","GW",224,"3","b.40",45
"1025","RBCV1656",10,12,11,10,9,2853,626,0,1,"no_press","noGo",1,"win","NGW",225,"3","b.40",45
"1026","RBCV1656",9,12,11,10,9,2360,903,0,0,"no_press","noGo",1,"neutral","NGL",226,"3","b.40",46
"1027","RBCV1656",11,12,11,10,9,2291,548,526,0,"press","Go",1,"neutral","GAL",227,"3","b.40",46
"1028","RBCV1656",10,12,11,10,9,1479,752,0,1,"no_press","noGo",1,"win","NGW",228,"3","b.40",46
"1029","RBCV1656",11,12,11,10,9,1787,943,569,-1,"press","Go",1,"lose","GAL",229,"3","b.40",46
"1030","RBCV1656",12,12,11,10,9,1189,949,491,1,"press","Go",1,"win","GW",230,"3","b.40",46
"1031","RBCV1656",11,12,11,10,9,1990,961,594,0,"press","Go",1,"neutral","GAL",231,"3","b.40",47
"1032","RBCV1656",10,12,11,10,9,2478,558,0,0,"no_press","noGo",1,"neutral","NGW",232,"3","b.40",47
"1033","RBCV1656",12,12,11,10,9,2664,852,427,1,"press","Go",1,"win","GW",233,"3","b.40",47
"1034","RBCV1656",12,12,11,10,9,5000,724,525,0,"press","Go",1,"neutral","GW",234,"3","b.40",47
"1035","RBCV1656",12,12,11,10,9,1655,734,596,1,"press","Go",1,"win","GW",235,"3","b.40",47
"1036","RBCV1656",9,12,11,10,9,2057,756,0,0,"no_press","noGo",1,"neutral","NGL",236,"3","b.40",48
"1037","RBCV1656",9,12,11,10,9,2540,980,0,-1,"no_press","noGo",1,"lose","NGL",237,"3","b.40",48
"1038","RBCV1656",9,12,11,10,9,1964,735,0,0,"no_press","noGo",1,"neutral","NGL",238,"3","b.40",48
"1039","RBCV1656",9,12,11,10,9,1939,653,0,0,"no_press","noGo",1,"neutral","NGL",239,"3","b.40",48
"1040","RBCV1656",12,12,11,10,9,2038,941,549,1,"press","Go",1,"win","GW",240,"3","b.40",48
"1041","RBCV1656",12,12,11,10,9,2745,815,469,1,"press","Go",1,"win","GW",241,"3","c.60",49
"1042","RBCV1656",12,12,11,10,9,1678,743,432,1,"press","Go",1,"win","GW",242,"3","c.60",49
"1043","RBCV1656",10,12,11,10,9,1000,822,0,1,"no_press","noGo",1,"win","NGW",243,"3","c.60",49
"1044","RBCV1656",11,12,11,10,9,2166,604,0,-1,"no_press","Go",0,"lose","GAL",244,"3","c.60",49
"1045","RBCV1656",9,12,11,10,9,2084,706,0,0,"no_press","noGo",1,"neutral","NGL",245,"3","c.60",49
"1046","RBCV1656",10,12,11,10,9,2272,776,0,1,"no_press","noGo",1,"win","NGW",246,"3","c.60",50
"1047","RBCV1656",9,12,11,10,9,1444,977,0,-1,"no_press","noGo",1,"lose","NGL",247,"3","c.60",50
"1048","RBCV1656",12,12,11,10,9,2209,654,501,1,"press","Go",1,"win","GW",248,"3","c.60",50
"1049","RBCV1656",10,12,11,10,9,2026,675,0,1,"no_press","noGo",1,"win","NGW",249,"3","c.60",50
"1050","RBCV1656",11,12,11,10,9,3412,773,642,0,"press","Go",1,"neutral","GAL",250,"3","c.60",50
"1051","RBCV1656",9,12,11,10,9,1772,768,0,-1,"no_press","noGo",1,"lose","NGL",251,"3","c.60",51
"1052","RBCV1656",9,12,11,10,9,2855,637,457,-1,"press","noGo",0,"lose","NGL",252,"3","c.60",51
"1053","RBCV1656",12,12,11,10,9,3344,766,544,1,"press","Go",1,"win","GW",253,"3","c.60",51
"1054","RBCV1656",11,12,11,10,9,1965,644,968,0,"press","Go",1,"neutral","GAL",254,"3","c.60",51
"1055","RBCV1656",12,12,11,10,9,1562,574,586,1,"press","Go",1,"win","GW",255,"3","c.60",51
"1056","RBCV1656",11,12,11,10,9,1869,613,552,0,"press","Go",1,"neutral","GAL",256,"3","c.60",52
"1057","RBCV1656",10,12,11,10,9,1511,807,0,1,"no_press","noGo",1,"win","NGW",257,"3","c.60",52
"1058","RBCV1656",11,12,11,10,9,1889,999,429,0,"press","Go",1,"neutral","GAL",258,"3","c.60",52
"1059","RBCV1656",9,12,11,10,9,2464,814,0,0,"no_press","noGo",1,"neutral","NGL",259,"3","c.60",52
"1060","RBCV1656",9,12,11,10,9,1888,581,0,-1,"no_press","noGo",1,"lose","NGL",260,"3","c.60",52
"1061","RBCV1656",11,12,11,10,9,1608,775,609,0,"press","Go",1,"neutral","GAL",261,"3","d.80",53
"1062","RBCV1656",10,12,11,10,9,2318,897,0,1,"no_press","noGo",1,"win","NGW",262,"3","d.80",53
"1063","RBCV1656",10,12,11,10,9,1206,796,0,1,"no_press","noGo",1,"win","NGW",263,"3","d.80",53
"1064","RBCV1656",11,12,11,10,9,2254,968,505,0,"press","Go",1,"neutral","GAL",264,"3","d.80",53
"1065","RBCV1656",10,12,11,10,9,2103,505,0,0,"no_press","noGo",1,"neutral","NGW",265,"3","d.80",53
"1066","RBCV1656",10,12,11,10,9,2303,579,0,1,"no_press","noGo",1,"win","NGW",266,"3","d.80",54
"1067","RBCV1656",10,12,11,10,9,1709,586,0,1,"no_press","noGo",1,"win","NGW",267,"3","d.80",54
"1068","RBCV1656",12,12,11,10,9,2601,975,569,1,"press","Go",1,"win","GW",268,"3","d.80",54
"1069","RBCV1656",11,12,11,10,9,2253,509,639,-1,"press","Go",1,"lose","GAL",269,"3","d.80",54
"1070","RBCV1656",10,12,11,10,9,1943,902,0,1,"no_press","noGo",1,"win","NGW",270,"3","d.80",54
