"","ID","stim_ID","GW","GAL","NGW","NGL","jitter1","jitter2","RT","outcomefeed","response","GNG","correct","win_lose_neutral","Cue","trial_number","block","per_20trials","per_5trials"
"1","CTLB0360",2,4,1,2,3,2032,764,0,1,"no_press","noGo",1,"win","NGW",1,"1","a.20",1
"2","CTLB0360",4,4,1,2,3,2336,593,1311,1,"press","Go",1,"win","GW",2,"1","a.20",1
"3","CTLB0360",3,4,1,2,3,1883,678,0,0,"no_press","noGo",1,"neutral","NGL",3,"1","a.20",1
"4","CTLB0360",3,4,1,2,3,1943,817,0,0,"no_press","noGo",1,"neutral","NGL",4,"1","a.20",1
"5","CTLB0360",4,4,1,2,3,1966,739,855,1,"press","Go",1,"win","GW",5,"1","a.20",1
"6","CTLB0360",1,4,1,2,3,1630,506,0,-1,"no_press","Go",0,"lose","GAL",6,"1","a.20",2
"7","CTLB0360",2,4,1,2,3,2283,970,728,0,"press","noGo",0,"neutral","NGW",7,"1","a.20",2
"8","CTLB0360",4,4,1,2,3,2315,560,1240,0,"press","Go",1,"neutral","GW",8,"1","a.20",2
"9","CTLB0360",4,4,1,2,3,2129,574,589,1,"press","Go",1,"win","GW",9,"1","a.20",2
"10","CTLB0360",4,4,1,2,3,1364,832,822,0,"press","Go",1,"neutral","GW",10,"1","a.20",2
"11","CTLB0360",4,4,1,2,3,1964,809,1108,1,"press","Go",1,"win","GW",11,"1","a.20",3
"12","CTLB0360",4,4,1,2,3,1845,611,560,1,"press","Go",1,"win","GW",12,"1","a.20",3
"13","CTLB0360",1,4,1,2,3,3412,780,0,-1,"no_press","Go",0,"lose","GAL",13,"1","a.20",3
"14","CTLB0360",4,4,1,2,3,1206,817,673,1,"press","Go",1,"win","GW",14,"1","a.20",3
"15","CTLB0360",4,4,1,2,3,1596,703,655,1,"press","Go",1,"win","GW",15,"1","a.20",3
"16","CTLB0360",3,4,1,2,3,2528,580,0,-1,"no_press","noGo",1,"lose","NGL",16,"1","a.20",4
"17","CTLB0360",4,4,1,2,3,1678,753,891,1,"press","Go",1,"win","GW",17,"1","a.20",4
"18","CTLB0360",3,4,1,2,3,2853,609,783,-1,"press","noGo",0,"lose","NGL",18,"1","a.20",4
"19","CTLB0360",3,4,1,2,3,1959,762,0,-1,"no_press","noGo",1,"lose","NGL",19,"1","a.20",4
"20","CTLB0360",1,4,1,2,3,1869,692,1011,0,"press","Go",1,"neutral","GAL",20,"1","a.20",4
"21","CTLB0360",4,4,1,2,3,1482,635,630,1,"press","Go",1,"win","GW",21,"1","b.40",5
"22","CTLB0360",1,4,1,2,3,2464,892,819,0,"press","Go",1,"neutral","GAL",22,"1","b.40",5
"23","CTLB0360",2,4,1,2,3,2513,734,1290,0,"press","noGo",0,"neutral","NGW",23,"1","b.40",5
"24","CTLB0360",2,4,1,2,3,1000,746,654,0,"press","noGo",0,"neutral","NGW",24,"1","b.40",5
"25","CTLB0360",1,4,1,2,3,1453,561,1289,0,"press","Go",1,"neutral","GAL",25,"1","b.40",5
"26","CTLB0360",2,4,1,2,3,2287,906,771,1,"press","noGo",0,"win","NGW",26,"1","b.40",6
"27","CTLB0360",4,4,1,2,3,1246,661,564,1,"press","Go",1,"win","GW",27,"1","b.40",6
"28","CTLB0360",2,4,1,2,3,1885,521,739,0,"press","noGo",0,"neutral","NGW",28,"1","b.40",6
"29","CTLB0360",1,4,1,2,3,1432,582,842,0,"press","Go",1,"neutral","GAL",29,"1","b.40",6
"30","CTLB0360",4,4,1,2,3,1942,633,536,0,"press","Go",1,"neutral","GW",30,"1","b.40",6
"31","CTLB0360",4,4,1,2,3,1942,904,588,1,"press","Go",1,"win","GW",31,"1","b.40",7
"32","CTLB0360",2,4,1,2,3,2388,803,612,1,"press","noGo",0,"win","NGW",32,"1","b.40",7
"33","CTLB0360",4,4,1,2,3,2057,652,502,1,"press","Go",1,"win","GW",33,"1","b.40",7
"34","CTLB0360",3,4,1,2,3,2207,648,0,0,"no_press","noGo",1,"neutral","NGL",34,"1","b.40",7
"35","CTLB0360",1,4,1,2,3,1932,657,1235,0,"press","Go",1,"neutral","GAL",35,"1","b.40",7
"36","CTLB0360",1,4,1,2,3,1204,801,658,-1,"press","Go",1,"lose","GAL",36,"1","b.40",8
"37","CTLB0360",1,4,1,2,3,1709,641,0,-1,"no_press","Go",0,"lose","GAL",37,"1","b.40",8
"38","CTLB0360",3,4,1,2,3,1407,574,0,0,"no_press","noGo",1,"neutral","NGL",38,"1","b.40",8
"39","CTLB0360",4,4,1,2,3,1511,988,635,1,"press","Go",1,"win","GW",39,"1","b.40",8
"40","CTLB0360",1,4,1,2,3,2523,882,0,-1,"no_press","Go",0,"lose","GAL",40,"1","b.40",8
"41","CTLB0360",1,4,1,2,3,1511,836,488,-1,"press","Go",1,"lose","GAL",41,"1","c.60",9
"42","CTLB0360",1,4,1,2,3,1479,946,1078,0,"press","Go",1,"neutral","GAL",42,"1","c.60",9
"43","CTLB0360",4,4,1,2,3,1908,639,973,1,"press","Go",1,"win","GW",43,"1","c.60",9
"44","CTLB0360",3,4,1,2,3,1000,664,0,0,"no_press","noGo",1,"neutral","NGL",44,"1","c.60",9
"45","CTLB0360",2,4,1,2,3,2998,975,0,0,"no_press","noGo",1,"neutral","NGW",45,"1","c.60",9
"46","CTLB0360",1,4,1,2,3,2794,743,1133,0,"press","Go",1,"neutral","GAL",46,"1","c.60",10
"47","CTLB0360",2,4,1,2,3,1266,836,635,0,"press","noGo",0,"neutral","NGW",47,"1","c.60",10
"48","CTLB0360",1,4,1,2,3,1614,758,529,0,"press","Go",1,"neutral","GAL",48,"1","c.60",10
"49","CTLB0360",2,4,1,2,3,1249,727,746,0,"press","noGo",0,"neutral","NGW",49,"1","c.60",10
"50","CTLB0360",3,4,1,2,3,2000,875,0,0,"no_press","noGo",1,"neutral","NGL",50,"1","c.60",10
"51","CTLB0360",1,4,1,2,3,2306,683,0,-1,"no_press","Go",0,"lose","GAL",51,"1","c.60",11
"52","CTLB0360",3,4,1,2,3,1462,578,0,0,"no_press","noGo",1,"neutral","NGL",52,"1","c.60",11
"53","CTLB0360",2,4,1,2,3,1536,902,410,0,"press","noGo",0,"neutral","NGW",53,"1","c.60",11
"54","CTLB0360",3,4,1,2,3,1787,623,0,0,"no_press","noGo",1,"neutral","NGL",54,"1","c.60",11
"55","CTLB0360",2,4,1,2,3,2103,872,851,0,"press","noGo",0,"neutral","NGW",55,"1","c.60",11
"56","CTLB0360",2,4,1,2,3,1000,685,0,1,"no_press","noGo",1,"win","NGW",56,"1","c.60",12
"57","CTLB0360",4,4,1,2,3,3016,513,647,1,"press","Go",1,"win","GW",57,"1","c.60",12
"58","CTLB0360",2,4,1,2,3,2063,601,0,0,"no_press","noGo",1,"neutral","NGW",58,"1","c.60",12
"59","CTLB0360",3,4,1,2,3,1559,933,0,0,"no_press","noGo",1,"neutral","NGL",59,"1","c.60",12
"60","CTLB0360",2,4,1,2,3,1806,944,577,0,"press","noGo",0,"neutral","NGW",60,"1","c.60",12
"61","CTLB0360",1,4,1,2,3,5000,522,514,0,"press","Go",1,"neutral","GAL",61,"1","d.80",13
"62","CTLB0360",3,4,1,2,3,3626,959,0,-1,"no_press","noGo",1,"lose","NGL",62,"1","d.80",13
"63","CTLB0360",2,4,1,2,3,1503,882,545,0,"press","noGo",0,"neutral","NGW",63,"1","d.80",13
"64","CTLB0360",4,4,1,2,3,1289,639,576,1,"press","Go",1,"win","GW",64,"1","d.80",13
"65","CTLB0360",4,4,1,2,3,2164,859,862,0,"press","Go",1,"neutral","GW",65,"1","d.80",13
"66","CTLB0360",2,4,1,2,3,1330,967,659,0,"press","noGo",0,"neutral","NGW",66,"1","d.80",14
"67","CTLB0360",3,4,1,2,3,2245,967,1142,-1,"press","noGo",0,"lose","NGL",67,"1","d.80",14
"68","CTLB0360",3,4,1,2,3,1772,656,0,0,"no_press","noGo",1,"neutral","NGL",68,"1","d.80",14
"69","CTLB0360",2,4,1,2,3,2169,907,656,0,"press","noGo",0,"neutral","NGW",69,"1","d.80",14
"70","CTLB0360",4,4,1,2,3,2785,823,627,1,"press","Go",1,"win","GW",70,"1","d.80",14
"71","CTLB0360",4,4,1,2,3,1634,800,552,1,"press","Go",1,"win","GW",71,"1","d.80",15
"72","CTLB0360",2,4,1,2,3,1457,798,864,0,"press","noGo",0,"neutral","NGW",72,"1","d.80",15
"73","CTLB0360",3,4,1,2,3,2066,549,0,0,"no_press","noGo",1,"neutral","NGL",73,"1","d.80",15
"74","CTLB0360",3,4,1,2,3,2140,918,402,-1,"press","noGo",0,"lose","NGL",74,"1","d.80",15
"75","CTLB0360",1,4,1,2,3,2239,765,0,0,"no_press","Go",0,"neutral","GAL",75,"1","d.80",15
"76","CTLB0360",1,4,1,2,3,2980,820,0,-1,"no_press","Go",0,"lose","GAL",76,"1","d.80",16
"77","CTLB0360",2,4,1,2,3,1289,887,832,1,"press","noGo",0,"win","NGW",77,"1","d.80",16
"78","CTLB0360",2,4,1,2,3,2444,788,660,0,"press","noGo",0,"neutral","NGW",78,"1","d.80",16
"79","CTLB0360",2,4,1,2,3,1693,914,759,0,"press","noGo",0,"neutral","NGW",79,"1","d.80",16
"80","CTLB0360",3,4,1,2,3,2380,860,0,-1,"no_press","noGo",1,"lose","NGL",80,"1","d.80",16
"81","CTLB0360",2,4,1,2,3,2323,912,523,0,"press","noGo",0,"neutral","NGW",81,"1","e.100",17
"82","CTLB0360",3,4,1,2,3,2745,869,0,0,"no_press","noGo",1,"neutral","NGL",82,"1","e.100",17
"83","CTLB0360",2,4,1,2,3,2303,886,746,0,"press","noGo",0,"neutral","NGW",83,"1","e.100",17
"84","CTLB0360",1,4,1,2,3,2609,893,1178,-1,"press","Go",1,"lose","GAL",84,"1","e.100",17
"85","CTLB0360",1,4,1,2,3,1537,969,0,-1,"no_press","Go",0,"lose","GAL",85,"1","e.100",17
"86","CTLB0360",3,4,1,2,3,1810,801,0,0,"no_press","noGo",1,"neutral","NGL",86,"1","e.100",18
"87","CTLB0360",3,4,1,2,3,1992,924,0,0,"no_press","noGo",1,"neutral","NGL",87,"1","e.100",18
"88","CTLB0360",3,4,1,2,3,1479,893,0,0,"no_press","noGo",1,"neutral","NGL",88,"1","e.100",18
"89","CTLB0360",1,4,1,2,3,2885,777,484,0,"press","Go",1,"neutral","GAL",89,"1","e.100",18
"90","CTLB0360",3,4,1,2,3,2664,851,1035,-1,"press","noGo",0,"lose","NGL",90,"1","e.100",18
"91","CTLB0360",4,4,1,2,3,2615,888,1013,0,"press","Go",1,"neutral","GW",91,"1","e.100",19
"92","CTLB0360",1,4,1,2,3,2036,890,899,0,"press","Go",1,"neutral","GAL",92,"1","e.100",19
"93","CTLB0360",1,4,1,2,3,2367,917,479,0,"press","Go",1,"neutral","GAL",93,"1","e.100",19
"94","CTLB0360",4,4,1,2,3,1597,832,331,1,"press","Go",1,"win","GW",94,"1","e.100",19
"95","CTLB0360",3,4,1,2,3,2004,957,0,-1,"no_press","noGo",1,"lose","NGL",95,"1","e.100",19
"96","CTLB0360",2,4,1,2,3,1671,558,654,0,"press","noGo",0,"neutral","NGW",96,"1","e.100",20
"97","CTLB0360",3,4,1,2,3,3128,816,0,0,"no_press","noGo",1,"neutral","NGL",97,"1","e.100",20
"98","CTLB0360",4,4,1,2,3,1742,707,552,1,"press","Go",1,"win","GW",98,"1","e.100",20
"99","CTLB0360",1,4,1,2,3,1491,514,0,-1,"no_press","Go",0,"lose","GAL",99,"1","e.100",20
"100","CTLB0360",1,4,1,2,3,2745,911,1161,-1,"press","Go",1,"lose","GAL",100,"1","e.100",20
"101","CTLB0360",6,6,7,8,5,1494,930,1213,1,"press","Go",1,"win","GW",101,"2","a.20",21
"102","CTLB0360",5,6,7,8,5,3445,622,0,0,"no_press","noGo",1,"neutral","NGL",102,"2","a.20",21
"103","CTLB0360",7,6,7,8,5,2254,611,0,-1,"no_press","Go",0,"lose","GAL",103,"2","a.20",21
"104","CTLB0360",6,6,7,8,5,2195,561,924,1,"press","Go",1,"win","GW",104,"2","a.20",21
"105","CTLB0360",6,6,7,8,5,1562,879,657,0,"press","Go",1,"neutral","GW",105,"2","a.20",21
"106","CTLB0360",5,6,7,8,5,1752,935,0,0,"no_press","noGo",1,"neutral","NGL",106,"2","a.20",22
"107","CTLB0360",6,6,7,8,5,1795,725,595,1,"press","Go",1,"win","GW",107,"2","a.20",22
"108","CTLB0360",5,6,7,8,5,1847,593,1155,-1,"press","noGo",0,"lose","NGL",108,"2","a.20",22
"109","CTLB0360",7,6,7,8,5,1785,872,672,-1,"press","Go",1,"lose","GAL",109,"2","a.20",22
"110","CTLB0360",7,6,7,8,5,2930,826,578,0,"press","Go",1,"neutral","GAL",110,"2","a.20",22
"111","CTLB0360",6,6,7,8,5,1000,671,574,1,"press","Go",1,"win","GW",111,"2","a.20",23
"112","CTLB0360",8,6,7,8,5,2724,771,743,0,"press","noGo",0,"neutral","NGW",112,"2","a.20",23
"113","CTLB0360",8,6,7,8,5,2538,998,1238,0,"press","noGo",0,"neutral","NGW",113,"2","a.20",23
"114","CTLB0360",7,6,7,8,5,1570,922,815,-1,"press","Go",1,"lose","GAL",114,"2","a.20",23
"115","CTLB0360",7,6,7,8,5,1237,938,0,-1,"no_press","Go",0,"lose","GAL",115,"2","a.20",23
"116","CTLB0360",8,6,7,8,5,1674,863,0,0,"no_press","noGo",1,"neutral","NGW",116,"2","a.20",24
"117","CTLB0360",5,6,7,8,5,1812,817,657,-1,"press","noGo",0,"lose","NGL",117,"2","a.20",24
"118","CTLB0360",5,6,7,8,5,2349,875,0,-1,"no_press","noGo",1,"lose","NGL",118,"2","a.20",24
"119","CTLB0360",6,6,7,8,5,1250,758,0,0,"no_press","Go",0,"neutral","GW",119,"2","a.20",24
"120","CTLB0360",5,6,7,8,5,1505,698,803,-1,"press","noGo",0,"lose","NGL",120,"2","a.20",24
"121","CTLB0360",7,6,7,8,5,2337,934,586,0,"press","Go",1,"neutral","GAL",121,"2","b.40",25
"122","CTLB0360",7,6,7,8,5,2038,980,459,-1,"press","Go",1,"lose","GAL",122,"2","b.40",25
"123","CTLB0360",7,6,7,8,5,1465,745,1373,0,"press","Go",1,"neutral","GAL",123,"2","b.40",25
"124","CTLB0360",6,6,7,8,5,2315,779,1545,1,"press","Go",1,"win","GW",124,"2","b.40",25
"125","CTLB0360",5,6,7,8,5,3029,532,724,-1,"press","noGo",0,"lose","NGL",125,"2","b.40",25
"126","CTLB0360",7,6,7,8,5,1967,622,0,-1,"no_press","Go",0,"lose","GAL",126,"2","b.40",26
"127","CTLB0360",5,6,7,8,5,1329,650,770,-1,"press","noGo",0,"lose","NGL",127,"2","b.40",26
"128","CTLB0360",6,6,7,8,5,1547,902,0,0,"no_press","Go",0,"neutral","GW",128,"2","b.40",26
"129","CTLB0360",6,6,7,8,5,1326,821,641,1,"press","Go",1,"win","GW",129,"2","b.40",26
"130","CTLB0360",8,6,7,8,5,1483,838,675,0,"press","noGo",0,"neutral","NGW",130,"2","b.40",26
"131","CTLB0360",6,6,7,8,5,2227,700,898,0,"press","Go",1,"neutral","GW",131,"2","b.40",27
"132","CTLB0360",6,6,7,8,5,2001,653,651,1,"press","Go",1,"win","GW",132,"2","b.40",27
"133","CTLB0360",7,6,7,8,5,1385,561,942,0,"press","Go",1,"neutral","GAL",133,"2","b.40",27
"134","CTLB0360",8,6,7,8,5,2104,806,1307,0,"press","noGo",0,"neutral","NGW",134,"2","b.40",27
"135","CTLB0360",5,6,7,8,5,1402,600,960,-1,"press","noGo",0,"lose","NGL",135,"2","b.40",27
"136","CTLB0360",6,6,7,8,5,2019,507,640,1,"press","Go",1,"win","GW",136,"2","b.40",28
"137","CTLB0360",8,6,7,8,5,2257,971,0,1,"no_press","noGo",1,"win","NGW",137,"2","b.40",28
"138","CTLB0360",7,6,7,8,5,2080,560,0,-1,"no_press","Go",0,"lose","GAL",138,"2","b.40",28
"139","CTLB0360",7,6,7,8,5,3876,983,794,0,"press","Go",1,"neutral","GAL",139,"2","b.40",28
"140","CTLB0360",6,6,7,8,5,2942,641,589,1,"press","Go",1,"win","GW",140,"2","b.40",28
"141","CTLB0360",5,6,7,8,5,1555,778,0,0,"no_press","noGo",1,"neutral","NGL",141,"2","c.60",29
"142","CTLB0360",6,6,7,8,5,2184,626,560,1,"press","Go",1,"win","GW",142,"2","c.60",29
"143","CTLB0360",8,6,7,8,5,2228,631,0,1,"no_press","noGo",1,"win","NGW",143,"2","c.60",29
"144","CTLB0360",6,6,7,8,5,2887,729,535,1,"press","Go",1,"win","GW",144,"2","c.60",29
"145","CTLB0360",7,6,7,8,5,1678,971,442,0,"press","Go",1,"neutral","GAL",145,"2","c.60",29
"146","CTLB0360",8,6,7,8,5,1807,863,0,0,"no_press","noGo",1,"neutral","NGW",146,"2","c.60",30
"147","CTLB0360",5,6,7,8,5,1678,715,0,0,"no_press","noGo",1,"neutral","NGL",147,"2","c.60",30
"148","CTLB0360",7,6,7,8,5,2615,748,496,0,"press","Go",1,"neutral","GAL",148,"2","c.60",30
"149","CTLB0360",7,6,7,8,5,2234,912,722,0,"press","Go",1,"neutral","GAL",149,"2","c.60",30
"150","CTLB0360",8,6,7,8,5,1939,693,0,0,"no_press","noGo",1,"neutral","NGW",150,"2","c.60",30
"151","CTLB0360",8,6,7,8,5,2218,574,0,1,"no_press","noGo",1,"win","NGW",151,"2","c.60",31
"152","CTLB0360",6,6,7,8,5,2828,791,561,1,"press","Go",1,"win","GW",152,"2","c.60",31
"153","CTLB0360",8,6,7,8,5,2291,500,0,0,"no_press","noGo",1,"neutral","NGW",153,"2","c.60",31
"154","CTLB0360",5,6,7,8,5,1456,923,0,0,"no_press","noGo",1,"neutral","NGL",154,"2","c.60",31
"155","CTLB0360",8,6,7,8,5,2318,762,0,1,"no_press","noGo",1,"win","NGW",155,"2","c.60",31
"156","CTLB0360",8,6,7,8,5,1802,846,0,1,"no_press","noGo",1,"win","NGW",156,"2","c.60",32
"157","CTLB0360",8,6,7,8,5,2008,997,0,1,"no_press","noGo",1,"win","NGW",157,"2","c.60",32
"158","CTLB0360",5,6,7,8,5,1598,742,0,-1,"no_press","noGo",1,"lose","NGL",158,"2","c.60",32
"159","CTLB0360",6,6,7,8,5,2547,847,581,1,"press","Go",1,"win","GW",159,"2","c.60",32
"160","CTLB0360",8,6,7,8,5,2198,521,0,1,"no_press","noGo",1,"win","NGW",160,"2","c.60",32
"161","CTLB0360",8,6,7,8,5,2304,528,0,0,"no_press","noGo",1,"neutral","NGW",161,"2","d.80",33
"162","CTLB0360",8,6,7,8,5,2072,600,0,1,"no_press","noGo",1,"win","NGW",162,"2","d.80",33
"163","CTLB0360",6,6,7,8,5,2404,975,561,0,"press","Go",1,"neutral","GW",163,"2","d.80",33
"164","CTLB0360",6,6,7,8,5,1275,741,668,1,"press","Go",1,"win","GW",164,"2","d.80",33
"165","CTLB0360",8,6,7,8,5,2029,938,0,1,"no_press","noGo",1,"win","NGW",165,"2","d.80",33
"166","CTLB0360",8,6,7,8,5,2087,695,0,1,"no_press","noGo",1,"win","NGW",166,"2","d.80",34
"167","CTLB0360",5,6,7,8,5,1000,881,1346,-1,"press","noGo",0,"lose","NGL",167,"2","d.80",34
"168","CTLB0360",8,6,7,8,5,2166,797,0,1,"no_press","noGo",1,"win","NGW",168,"2","d.80",34
"169","CTLB0360",5,6,7,8,5,1588,691,0,-1,"no_press","noGo",1,"lose","NGL",169,"2","d.80",34
"170","CTLB0360",7,6,7,8,5,1554,963,728,0,"press","Go",1,"neutral","GAL",170,"2","d.80",34
"171","CTLB0360",5,6,7,8,5,1592,560,1489,-1,"press","noGo",0,"lose","NGL",171,"2","d.80",35
"172","CTLB0360",5,6,7,8,5,2360,826,0,0,"no_press","noGo",1,"neutral","NGL",172,"2","d.80",35
"173","CTLB0360",6,6,7,8,5,1759,670,395,1,"press","Go",1,"win","GW",173,"2","d.80",35
"174","CTLB0360",8,6,7,8,5,2964,644,0,1,"no_press","noGo",1,"win","NGW",174,"2","d.80",35
"175","CTLB0360",7,6,7,8,5,2359,974,932,0,"press","Go",1,"neutral","GAL",175,"2","d.80",35
"176","CTLB0360",8,6,7,8,5,2041,997,0,1,"no_press","noGo",1,"win","NGW",176,"2","d.80",36
"177","CTLB0360",7,6,7,8,5,2493,655,555,0,"press","Go",1,"neutral","GAL",177,"2","d.80",36
"178","CTLB0360",8,6,7,8,5,2719,971,0,1,"no_press","noGo",1,"win","NGW",178,"2","d.80",36
"179","CTLB0360",5,6,7,8,5,2209,985,0,0,"no_press","noGo",1,"neutral","NGL",179,"2","d.80",36
"180","CTLB0360",6,6,7,8,5,1354,547,603,1,"press","Go",1,"win","GW",180,"2","d.80",36
"181","CTLB0360",7,6,7,8,5,2085,524,779,-1,"press","Go",1,"lose","GAL",181,"2","e.100",37
"182","CTLB0360",7,6,7,8,5,3029,643,659,0,"press","Go",1,"neutral","GAL",182,"2","e.100",37
"183","CTLB0360",6,6,7,8,5,1841,727,794,1,"press","Go",1,"win","GW",183,"2","e.100",37
"184","CTLB0360",5,6,7,8,5,3515,978,1033,-1,"press","noGo",0,"lose","NGL",184,"2","e.100",37
"185","CTLB0360",7,6,7,8,5,1788,829,0,0,"no_press","Go",0,"neutral","GAL",185,"2","e.100",37
"186","CTLB0360",5,6,7,8,5,1826,618,0,0,"no_press","noGo",1,"neutral","NGL",186,"2","e.100",38
"187","CTLB0360",7,6,7,8,5,2506,766,440,0,"press","Go",1,"neutral","GAL",187,"2","e.100",38
"188","CTLB0360",7,6,7,8,5,3099,530,594,0,"press","Go",1,"neutral","GAL",188,"2","e.100",38
"189","CTLB0360",6,6,7,8,5,2088,885,666,0,"press","Go",1,"neutral","GW",189,"2","e.100",38
"190","CTLB0360",7,6,7,8,5,1524,517,521,0,"press","Go",1,"neutral","GAL",190,"2","e.100",38
"191","CTLB0360",6,6,7,8,5,3279,519,582,0,"press","Go",1,"neutral","GW",191,"2","e.100",39
"192","CTLB0360",5,6,7,8,5,2381,842,0,0,"no_press","noGo",1,"neutral","NGL",192,"2","e.100",39
"193","CTLB0360",5,6,7,8,5,1182,970,0,0,"no_press","noGo",1,"neutral","NGL",193,"2","e.100",39
"194","CTLB0360",5,6,7,8,5,1588,888,0,-1,"no_press","noGo",1,"lose","NGL",194,"2","e.100",39
"195","CTLB0360",5,6,7,8,5,2386,649,0,0,"no_press","noGo",1,"neutral","NGL",195,"2","e.100",39
"196","CTLB0360",7,6,7,8,5,1484,958,618,0,"press","Go",1,"neutral","GAL",196,"2","e.100",40
"197","CTLB0360",6,6,7,8,5,1931,797,543,1,"press","Go",1,"win","GW",197,"2","e.100",40
"198","CTLB0360",5,6,7,8,5,1932,721,1372,0,"press","noGo",0,"neutral","NGL",198,"2","e.100",40
"199","CTLB0360",8,6,7,8,5,2277,609,0,1,"no_press","noGo",1,"win","NGW",199,"2","e.100",40
"200","CTLB0360",8,6,7,8,5,2299,960,0,1,"no_press","noGo",1,"win","NGW",200,"2","e.100",40
"201","CTLB0360",12,12,9,10,11,3560,644,0,0,"no_press","Go",0,"neutral","GW",201,"3","a.20",41
"202","CTLB0360",12,12,9,10,11,2122,671,1350,1,"press","Go",1,"win","GW",202,"3","a.20",41
"203","CTLB0360",11,12,9,10,11,1864,582,0,0,"no_press","noGo",1,"neutral","NGL",203,"3","a.20",41
"204","CTLB0360",11,12,9,10,11,1196,789,784,-1,"press","noGo",0,"lose","NGL",204,"3","a.20",41
"205","CTLB0360",11,12,9,10,11,2335,531,0,-1,"no_press","noGo",1,"lose","NGL",205,"3","a.20",41
"206","CTLB0360",9,12,9,10,11,1764,590,984,0,"press","Go",1,"neutral","GAL",206,"3","a.20",42
"207","CTLB0360",12,12,9,10,11,2836,980,754,1,"press","Go",1,"win","GW",207,"3","a.20",42
"208","CTLB0360",11,12,9,10,11,2369,758,0,-1,"no_press","noGo",1,"lose","NGL",208,"3","a.20",42
"209","CTLB0360",10,12,9,10,11,1485,919,965,0,"press","noGo",0,"neutral","NGW",209,"3","a.20",42
"210","CTLB0360",9,12,9,10,11,1746,527,905,0,"press","Go",1,"neutral","GAL",210,"3","a.20",42
"211","CTLB0360",10,12,9,10,11,2548,827,775,0,"press","noGo",0,"neutral","NGW",211,"3","a.20",43
"212","CTLB0360",9,12,9,10,11,1771,782,603,0,"press","Go",1,"neutral","GAL",212,"3","a.20",43
"213","CTLB0360",9,12,9,10,11,2262,647,690,0,"press","Go",1,"neutral","GAL",213,"3","a.20",43
"214","CTLB0360",9,12,9,10,11,1372,674,636,0,"press","Go",1,"neutral","GAL",214,"3","a.20",43
"215","CTLB0360",11,12,9,10,11,2074,780,498,0,"press","noGo",0,"neutral","NGL",215,"3","a.20",43
"216","CTLB0360",11,12,9,10,11,2040,734,479,-1,"press","noGo",0,"lose","NGL",216,"3","a.20",44
"217","CTLB0360",9,12,9,10,11,1509,652,559,0,"press","Go",1,"neutral","GAL",217,"3","a.20",44
"218","CTLB0360",11,12,9,10,11,2247,825,511,-1,"press","noGo",0,"lose","NGL",218,"3","a.20",44
"219","CTLB0360",12,12,9,10,11,1288,792,639,0,"press","Go",1,"neutral","GW",219,"3","a.20",44
"220","CTLB0360",11,12,9,10,11,1948,544,0,0,"no_press","noGo",1,"neutral","NGL",220,"3","a.20",44
"221","CTLB0360",11,12,9,10,11,2034,894,0,0,"no_press","noGo",1,"neutral","NGL",221,"3","b.40",45
"222","CTLB0360",12,12,9,10,11,1825,829,628,1,"press","Go",1,"win","GW",222,"3","b.40",45
"223","CTLB0360",11,12,9,10,11,1613,665,0,0,"no_press","noGo",1,"neutral","NGL",223,"3","b.40",45
"224","CTLB0360",9,12,9,10,11,1855,813,730,0,"press","Go",1,"neutral","GAL",224,"3","b.40",45
"225","CTLB0360",10,12,9,10,11,2478,716,675,0,"press","noGo",0,"neutral","NGW",225,"3","b.40",45
"226","CTLB0360",10,12,9,10,11,2084,599,770,0,"press","noGo",0,"neutral","NGW",226,"3","b.40",46
"227","CTLB0360",9,12,9,10,11,2518,798,613,0,"press","Go",1,"neutral","GAL",227,"3","b.40",46
"228","CTLB0360",10,12,9,10,11,1467,939,611,0,"press","noGo",0,"neutral","NGW",228,"3","b.40",46
"229","CTLB0360",11,12,9,10,11,1798,529,511,-1,"press","noGo",0,"lose","NGL",229,"3","b.40",46
"230","CTLB0360",10,12,9,10,11,2097,879,0,1,"no_press","noGo",1,"win","NGW",230,"3","b.40",46
"231","CTLB0360",12,12,9,10,11,2818,830,876,1,"press","Go",1,"win","GW",231,"3","b.40",47
"232","CTLB0360",10,12,9,10,11,2319,503,842,0,"press","noGo",0,"neutral","NGW",232,"3","b.40",47
"233","CTLB0360",10,12,9,10,11,1938,919,580,0,"press","noGo",0,"neutral","NGW",233,"3","b.40",47
"234","CTLB0360",9,12,9,10,11,1990,689,0,0,"no_press","Go",0,"neutral","GAL",234,"3","b.40",47
"235","CTLB0360",9,12,9,10,11,2855,973,0,-1,"no_press","Go",0,"lose","GAL",235,"3","b.40",47
"236","CTLB0360",9,12,9,10,11,2588,867,946,0,"press","Go",1,"neutral","GAL",236,"3","b.40",48
"237","CTLB0360",11,12,9,10,11,2252,652,0,0,"no_press","noGo",1,"neutral","NGL",237,"3","b.40",48
"238","CTLB0360",10,12,9,10,11,2524,835,1152,1,"press","noGo",0,"win","NGW",238,"3","b.40",48
"239","CTLB0360",9,12,9,10,11,2664,992,1391,0,"press","Go",1,"neutral","GAL",239,"3","b.40",48
"240","CTLB0360",9,12,9,10,11,1461,880,889,0,"press","Go",1,"neutral","GAL",240,"3","b.40",48
"241","CTLB0360",11,12,9,10,11,1344,517,749,0,"press","noGo",0,"neutral","NGL",241,"3","c.60",49
"242","CTLB0360",12,12,9,10,11,1954,505,690,1,"press","Go",1,"win","GW",242,"3","c.60",49
"243","CTLB0360",10,12,9,10,11,2237,524,1385,0,"press","noGo",0,"neutral","NGW",243,"3","c.60",49
"244","CTLB0360",9,12,9,10,11,2250,789,693,0,"press","Go",1,"neutral","GAL",244,"3","c.60",49
"245","CTLB0360",12,12,9,10,11,2019,605,1015,1,"press","Go",1,"win","GW",245,"3","c.60",49
"246","CTLB0360",11,12,9,10,11,1445,605,818,-1,"press","noGo",0,"lose","NGL",246,"3","c.60",50
"247","CTLB0360",12,12,9,10,11,1829,773,879,1,"press","Go",1,"win","GW",247,"3","c.60",50
"248","CTLB0360",10,12,9,10,11,1889,953,1047,0,"press","noGo",0,"neutral","NGW",248,"3","c.60",50
"249","CTLB0360",10,12,9,10,11,2481,992,667,0,"press","noGo",0,"neutral","NGW",249,"3","c.60",50
"250","CTLB0360",12,12,9,10,11,2402,550,738,0,"press","Go",1,"neutral","GW",250,"3","c.60",50
"251","CTLB0360",12,12,9,10,11,2977,605,686,1,"press","Go",1,"win","GW",251,"3","c.60",51
"252","CTLB0360",12,12,9,10,11,2382,690,804,0,"press","Go",1,"neutral","GW",252,"3","c.60",51
"253","CTLB0360",12,12,9,10,11,2455,828,829,1,"press","Go",1,"win","GW",253,"3","c.60",51
"254","CTLB0360",9,12,9,10,11,1547,529,994,-1,"press","Go",1,"lose","GAL",254,"3","c.60",51
"255","CTLB0360",9,12,9,10,11,2253,718,915,0,"press","Go",1,"neutral","GAL",255,"3","c.60",51
"256","CTLB0360",12,12,9,10,11,2184,667,858,1,"press","Go",1,"win","GW",256,"3","c.60",52
"257","CTLB0360",10,12,9,10,11,2044,715,705,0,"press","noGo",0,"neutral","NGW",257,"3","c.60",52
"258","CTLB0360",11,12,9,10,11,3385,813,552,-1,"press","noGo",0,"lose","NGL",258,"3","c.60",52
"259","CTLB0360",9,12,9,10,11,1702,773,638,-1,"press","Go",1,"lose","GAL",259,"3","c.60",52
"260","CTLB0360",12,12,9,10,11,2490,752,413,1,"press","Go",1,"win","GW",260,"3","c.60",52
"261","CTLB0360",9,12,9,10,11,1693,659,455,-1,"press","Go",1,"lose","GAL",261,"3","d.80",53
"262","CTLB0360",11,12,9,10,11,3020,514,455,-1,"press","noGo",0,"lose","NGL",262,"3","d.80",53
"263","CTLB0360",11,12,9,10,11,1338,832,0,0,"no_press","noGo",1,"neutral","NGL",263,"3","d.80",53
"264","CTLB0360",11,12,9,10,11,1822,633,0,0,"no_press","noGo",1,"neutral","NGL",264,"3","d.80",53
"265","CTLB0360",9,12,9,10,11,1578,963,0,-1,"no_press","Go",0,"lose","GAL",265,"3","d.80",53
"266","CTLB0360",12,12,9,10,11,2045,547,895,0,"press","Go",1,"neutral","GW",266,"3","d.80",54
"267","CTLB0360",10,12,9,10,11,1784,911,680,0,"press","noGo",0,"neutral","NGW",267,"3","d.80",54
"268","CTLB0360",10,12,9,10,11,2357,741,676,0,"press","noGo",0,"neutral","NGW",268,"3","d.80",54
"269","CTLB0360",12,12,9,10,11,2080,830,977,1,"press","Go",1,"win","GW",269,"3","d.80",54
"270","CTLB0360",11,12,9,10,11,2907,551,0,0,"no_press","noGo",1,"neutral","NGL",270,"3","d.80",54
"271","CTLB0360",11,12,9,10,11,2540,965,0,0,"no_press","noGo",1,"neutral","NGL",271,"3","d.80",55
"272","CTLB0360",10,12,9,10,11,2761,674,874,0,"press","noGo",0,"neutral","NGW",272,"3","d.80",55
"273","CTLB0360",10,12,9,10,11,2344,882,782,1,"press","noGo",0,"win","NGW",273,"3","d.80",55
"274","CTLB0360",12,12,9,10,11,1963,817,554,1,"press","Go",1,"win","GW",274,"3","d.80",55
"275","CTLB0360",12,12,9,10,11,2503,518,568,1,"press","Go",1,"win","GW",275,"3","d.80",55
"276","CTLB0360",9,12,9,10,11,1423,990,592,0,"press","Go",1,"neutral","GAL",276,"3","d.80",56
"277","CTLB0360",9,12,9,10,11,2330,787,797,0,"press","Go",1,"neutral","GAL",277,"3","d.80",56
"278","CTLB0360",11,12,9,10,11,1655,780,899,0,"press","noGo",0,"neutral","NGL",278,"3","d.80",56
"279","CTLB0360",9,12,9,10,11,1848,643,509,0,"press","Go",1,"neutral","GAL",279,"3","d.80",56
"280","CTLB0360",9,12,9,10,11,2372,543,1209,0,"press","Go",1,"neutral","GAL",280,"3","d.80",56
"281","CTLB0360",12,12,9,10,11,1267,925,885,1,"press","Go",1,"win","GW",281,"3","e.100",57
"282","CTLB0360",9,12,9,10,11,1000,712,1156,-1,"press","Go",1,"lose","GAL",282,"3","e.100",57
"283","CTLB0360",10,12,9,10,11,2126,661,1227,0,"press","noGo",0,"neutral","NGW",283,"3","e.100",57
"284","CTLB0360",12,12,9,10,11,2579,977,1045,1,"press","Go",1,"win","GW",284,"3","e.100",57
"285","CTLB0360",11,12,9,10,11,2131,754,668,-1,"press","noGo",0,"lose","NGL",285,"3","e.100",57
"286","CTLB0360",12,12,9,10,11,1249,882,847,1,"press","Go",1,"win","GW",286,"3","e.100",58
"287","CTLB0360",12,12,9,10,11,2451,762,582,1,"press","Go",1,"win","GW",287,"3","e.100",58
"288","CTLB0360",10,12,9,10,11,1885,992,820,0,"press","noGo",0,"neutral","NGW",288,"3","e.100",58
"289","CTLB0360",10,12,9,10,11,1000,595,628,1,"press","noGo",0,"win","NGW",289,"3","e.100",58
"290","CTLB0360",11,12,9,10,11,2234,944,0,0,"no_press","noGo",1,"neutral","NGL",290,"3","e.100",58
"291","CTLB0360",11,12,9,10,11,2538,725,0,0,"no_press","noGo",1,"neutral","NGL",291,"3","e.100",59
"292","CTLB0360",10,12,9,10,11,1779,762,1027,1,"press","noGo",0,"win","NGW",292,"3","e.100",59
"293","CTLB0360",9,12,9,10,11,1615,961,0,-1,"no_press","Go",0,"lose","GAL",293,"3","e.100",59
"294","CTLB0360",10,12,9,10,11,2467,794,544,0,"press","noGo",0,"neutral","NGW",294,"3","e.100",59
"295","CTLB0360",12,12,9,10,11,1826,877,553,1,"press","Go",1,"win","GW",295,"3","e.100",59
"296","CTLB0360",11,12,9,10,11,2448,827,953,-1,"press","noGo",0,"lose","NGL",296,"3","e.100",60
"297","CTLB0360",10,12,9,10,11,2822,629,521,1,"press","noGo",0,"win","NGW",297,"3","e.100",60
"298","CTLB0360",10,12,9,10,11,1546,945,534,0,"press","noGo",0,"neutral","NGW",298,"3","e.100",60
"299","CTLB0360",12,12,9,10,11,2692,654,419,0,"press","Go",1,"neutral","GW",299,"3","e.100",60
"300","CTLB0360",10,12,9,10,11,2873,562,567,0,"press","noGo",0,"neutral","NGW",300,"3","e.100",60
"301","CTLB0360",16,16,13,14,15,1824,999,978,1,"press","Go",1,"win","GW",301,"4","a.20",61
"302","CTLB0360",16,16,13,14,15,1761,557,583,1,"press","Go",1,"win","GW",302,"4","a.20",61
"303","CTLB0360",13,16,13,14,15,1861,690,0,-1,"no_press","Go",0,"lose","GAL",303,"4","a.20",61
"304","CTLB0360",13,16,13,14,15,1189,549,0,-1,"no_press","Go",0,"lose","GAL",304,"4","a.20",61
"305","CTLB0360",16,16,13,14,15,1763,903,1017,0,"press","Go",1,"neutral","GW",305,"4","a.20",61
"306","CTLB0360",15,16,13,14,15,1191,676,1328,-1,"press","noGo",0,"lose","NGL",306,"4","a.20",62
"307","CTLB0360",14,16,13,14,15,1463,888,1024,0,"press","noGo",0,"neutral","NGW",307,"4","a.20",62
"308","CTLB0360",14,16,13,14,15,2817,727,1278,1,"press","noGo",0,"win","NGW",308,"4","a.20",62
"309","CTLB0360",13,16,13,14,15,1544,925,0,-1,"no_press","Go",0,"lose","GAL",309,"4","a.20",62
"310","CTLB0360",16,16,13,14,15,1509,504,906,1,"press","Go",1,"win","GW",310,"4","a.20",62
"311","CTLB0360",16,16,13,14,15,2241,882,888,1,"press","Go",1,"win","GW",311,"4","a.20",63
"312","CTLB0360",13,16,13,14,15,2206,875,0,-1,"no_press","Go",0,"lose","GAL",312,"4","a.20",63
"313","CTLB0360",14,16,13,14,15,1941,949,1078,0,"press","noGo",0,"neutral","NGW",313,"4","a.20",63
"314","CTLB0360",16,16,13,14,15,2145,565,809,0,"press","Go",1,"neutral","GW",314,"4","a.20",63
"315","CTLB0360",15,16,13,14,15,2323,980,0,0,"no_press","noGo",1,"neutral","NGL",315,"4","a.20",63
"316","CTLB0360",16,16,13,14,15,1922,894,597,1,"press","Go",1,"win","GW",316,"4","a.20",64
"317","CTLB0360",16,16,13,14,15,2299,947,0,0,"no_press","Go",0,"neutral","GW",317,"4","a.20",64
"318","CTLB0360",14,16,13,14,15,2107,650,799,0,"press","noGo",0,"neutral","NGW",318,"4","a.20",64
"319","CTLB0360",15,16,13,14,15,1591,739,772,-1,"press","noGo",0,"lose","NGL",319,"4","a.20",64
"320","CTLB0360",15,16,13,14,15,2864,945,0,0,"no_press","noGo",1,"neutral","NGL",320,"4","a.20",64
"321","CTLB0360",14,16,13,14,15,2014,593,475,0,"press","noGo",0,"neutral","NGW",321,"4","b.40",65
"322","CTLB0360",15,16,13,14,15,2272,611,0,-1,"no_press","noGo",1,"lose","NGL",322,"4","b.40",65
"323","CTLB0360",14,16,13,14,15,1318,655,1222,0,"press","noGo",0,"neutral","NGW",323,"4","b.40",65
"324","CTLB0360",14,16,13,14,15,2645,735,0,1,"no_press","noGo",1,"win","NGW",324,"4","b.40",65
"325","CTLB0360",14,16,13,14,15,2381,877,0,1,"no_press","noGo",1,"win","NGW",325,"4","b.40",65
"326","CTLB0360",16,16,13,14,15,2285,839,842,1,"press","Go",1,"win","GW",326,"4","b.40",66
"327","CTLB0360",15,16,13,14,15,2493,924,0,0,"no_press","noGo",1,"neutral","NGL",327,"4","b.40",66
"328","CTLB0360",15,16,13,14,15,1346,600,1487,-1,"press","noGo",0,"lose","NGL",328,"4","b.40",66
"329","CTLB0360",13,16,13,14,15,2086,777,0,-1,"no_press","Go",0,"lose","GAL",329,"4","b.40",66
"330","CTLB0360",16,16,13,14,15,1229,956,698,1,"press","Go",1,"win","GW",330,"4","b.40",66
"331","CTLB0360",13,16,13,14,15,2125,878,0,-1,"no_press","Go",0,"lose","GAL",331,"4","b.40",67
"332","CTLB0360",15,16,13,14,15,2226,591,0,-1,"no_press","noGo",1,"lose","NGL",332,"4","b.40",67
"333","CTLB0360",14,16,13,14,15,1368,926,743,0,"press","noGo",0,"neutral","NGW",333,"4","b.40",67
"334","CTLB0360",14,16,13,14,15,1885,713,0,1,"no_press","noGo",1,"win","NGW",334,"4","b.40",67
"335","CTLB0360",13,16,13,14,15,1743,890,0,0,"no_press","Go",0,"neutral","GAL",335,"4","b.40",67
"336","CTLB0360",14,16,13,14,15,2266,972,0,1,"no_press","noGo",1,"win","NGW",336,"4","b.40",68
"337","CTLB0360",15,16,13,14,15,1552,817,0,0,"no_press","noGo",1,"neutral","NGL",337,"4","b.40",68
"338","CTLB0360",15,16,13,14,15,2026,1000,1011,-1,"press","noGo",0,"lose","NGL",338,"4","b.40",68
"339","CTLB0360",15,16,13,14,15,2131,1000,0,0,"no_press","noGo",1,"neutral","NGL",339,"4","b.40",68
"340","CTLB0360",13,16,13,14,15,1433,998,1464,0,"press","Go",1,"neutral","GAL",340,"4","b.40",68
"341","CTLB0360",14,16,13,14,15,1576,802,814,0,"press","noGo",0,"neutral","NGW",341,"4","c.60",69
"342","CTLB0360",13,16,13,14,15,1965,852,825,-1,"press","Go",1,"lose","GAL",342,"4","c.60",69
"343","CTLB0360",13,16,13,14,15,1504,980,1348,0,"press","Go",1,"neutral","GAL",343,"4","c.60",69
"344","CTLB0360",15,16,13,14,15,2464,680,0,-1,"no_press","noGo",1,"lose","NGL",344,"4","c.60",69
"345","CTLB0360",16,16,13,14,15,1951,802,544,1,"press","Go",1,"win","GW",345,"4","c.60",69
"346","CTLB0360",15,16,13,14,15,2066,764,1177,-1,"press","noGo",0,"lose","NGL",346,"4","c.60",70
"347","CTLB0360",16,16,13,14,15,1000,715,706,1,"press","Go",1,"win","GW",347,"4","c.60",70
"348","CTLB0360",14,16,13,14,15,1485,712,1147,0,"press","noGo",0,"neutral","NGW",348,"4","c.60",70
"349","CTLB0360",15,16,13,14,15,2018,602,0,0,"no_press","noGo",1,"neutral","NGL",349,"4","c.60",70
"350","CTLB0360",13,16,13,14,15,1715,914,761,0,"press","Go",1,"neutral","GAL",350,"4","c.60",70
"351","CTLB0360",13,16,13,14,15,1888,920,437,0,"press","Go",1,"neutral","GAL",351,"4","c.60",71
"352","CTLB0360",15,16,13,14,15,1187,670,1183,0,"press","noGo",0,"neutral","NGL",352,"4","c.60",71
"353","CTLB0360",13,16,13,14,15,1238,825,659,0,"press","Go",1,"neutral","GAL",353,"4","c.60",71
"354","CTLB0360",15,16,13,14,15,1842,909,0,0,"no_press","noGo",1,"neutral","NGL",354,"4","c.60",71
"355","CTLB0360",15,16,13,14,15,1842,657,1134,-1,"press","noGo",0,"lose","NGL",355,"4","c.60",71
"356","CTLB0360",13,16,13,14,15,1166,541,0,-1,"no_press","Go",0,"lose","GAL",356,"4","c.60",72
"357","CTLB0360",14,16,13,14,15,2031,505,1181,0,"press","noGo",0,"neutral","NGW",357,"4","c.60",72
"358","CTLB0360",14,16,13,14,15,1990,645,0,0,"no_press","noGo",1,"neutral","NGW",358,"4","c.60",72
"359","CTLB0360",14,16,13,14,15,1452,590,804,0,"press","noGo",0,"neutral","NGW",359,"4","c.60",72
"360","CTLB0360",13,16,13,14,15,2125,758,833,0,"press","Go",1,"neutral","GAL",360,"4","c.60",72
"361","CTLB0360",16,16,13,14,15,1879,925,738,0,"press","Go",1,"neutral","GW",361,"4","d.80",73
"362","CTLB0360",16,16,13,14,15,2571,980,656,1,"press","Go",1,"win","GW",362,"4","d.80",73
"363","CTLB0360",14,16,13,14,15,1000,554,0,0,"no_press","noGo",1,"neutral","NGW",363,"4","d.80",73
"364","CTLB0360",14,16,13,14,15,2700,915,0,1,"no_press","noGo",1,"win","NGW",364,"4","d.80",73
"365","CTLB0360",14,16,13,14,15,2228,867,947,1,"press","noGo",0,"win","NGW",365,"4","d.80",73
"366","CTLB0360",14,16,13,14,15,2224,736,805,0,"press","noGo",0,"neutral","NGW",366,"4","d.80",74
"367","CTLB0360",13,16,13,14,15,3344,808,702,0,"press","Go",1,"neutral","GAL",367,"4","d.80",74
"368","CTLB0360",16,16,13,14,15,1608,646,884,1,"press","Go",1,"win","GW",368,"4","d.80",74
"369","CTLB0360",13,16,13,14,15,1444,972,651,-1,"press","Go",1,"lose","GAL",369,"4","d.80",74
"370","CTLB0360",16,16,13,14,15,1403,700,825,1,"press","Go",1,"win","GW",370,"4","d.80",74
"371","CTLB0360",13,16,13,14,15,1666,845,1052,0,"press","Go",1,"neutral","GAL",371,"4","d.80",75
"372","CTLB0360",13,16,13,14,15,2274,914,1149,-1,"press","Go",1,"lose","GAL",372,"4","d.80",75
"373","CTLB0360",16,16,13,14,15,1842,953,1152,1,"press","Go",1,"win","GW",373,"4","d.80",75
"374","CTLB0360",16,16,13,14,15,1795,696,0,0,"no_press","Go",0,"neutral","GW",374,"4","d.80",75
"375","CTLB0360",16,16,13,14,15,1717,934,845,0,"press","Go",1,"neutral","GW",375,"4","d.80",75
"376","CTLB0360",16,16,13,14,15,1729,775,645,1,"press","Go",1,"win","GW",376,"4","d.80",76
"377","CTLB0360",13,16,13,14,15,1495,607,914,0,"press","Go",1,"neutral","GAL",377,"4","d.80",76
"378","CTLB0360",13,16,13,14,15,1635,518,748,-1,"press","Go",1,"lose","GAL",378,"4","d.80",76
"379","CTLB0360",14,16,13,14,15,2776,642,880,0,"press","noGo",0,"neutral","NGW",379,"4","d.80",76
"380","CTLB0360",16,16,13,14,15,1753,665,721,1,"press","Go",1,"win","GW",380,"4","d.80",76
"381","CTLB0360",15,16,13,14,15,1198,859,0,0,"no_press","noGo",1,"neutral","NGL",381,"4","e.100",77
"382","CTLB0360",16,16,13,14,15,2176,721,902,1,"press","Go",1,"win","GW",382,"4","e.100",77
"383","CTLB0360",15,16,13,14,15,1504,586,636,-1,"press","noGo",0,"lose","NGL",383,"4","e.100",77
"384","CTLB0360",14,16,13,14,15,2257,799,1163,0,"press","noGo",0,"neutral","NGW",384,"4","e.100",77
"385","CTLB0360",15,16,13,14,15,2601,920,410,0,"press","noGo",0,"neutral","NGL",385,"4","e.100",77
"386","CTLB0360",13,16,13,14,15,1936,698,1271,0,"press","Go",1,"neutral","GAL",386,"4","e.100",78
"387","CTLB0360",13,16,13,14,15,1921,900,0,-1,"no_press","Go",0,"lose","GAL",387,"4","e.100",78
"388","CTLB0360",14,16,13,14,15,2018,884,601,0,"press","noGo",0,"neutral","NGW",388,"4","e.100",78
"389","CTLB0360",15,16,13,14,15,1965,565,353,-1,"press","noGo",0,"lose","NGL",389,"4","e.100",78
"390","CTLB0360",14,16,13,14,15,2650,561,0,1,"no_press","noGo",1,"win","NGW",390,"4","e.100",78
"391","CTLB0360",16,16,13,14,15,1729,890,811,1,"press","Go",1,"win","GW",391,"4","e.100",79
"392","CTLB0360",14,16,13,14,15,2129,725,977,1,"press","noGo",0,"win","NGW",392,"4","e.100",79
"393","CTLB0360",16,16,13,14,15,1861,836,0,0,"no_press","Go",0,"neutral","GW",393,"4","e.100",79
"394","CTLB0360",15,16,13,14,15,1509,634,409,-1,"press","noGo",0,"lose","NGL",394,"4","e.100",79
"395","CTLB0360",15,16,13,14,15,2695,568,592,-1,"press","noGo",0,"lose","NGL",395,"4","e.100",79
"396","CTLB0360",13,16,13,14,15,1715,865,0,-1,"no_press","Go",0,"lose","GAL",396,"4","e.100",80
"397","CTLB0360",13,16,13,14,15,2298,887,654,0,"press","Go",1,"neutral","GAL",397,"4","e.100",80
"398","CTLB0360",15,16,13,14,15,1430,844,1287,-1,"press","noGo",0,"lose","NGL",398,"4","e.100",80
"399","CTLB0360",15,16,13,14,15,1847,796,1175,-1,"press","noGo",0,"lose","NGL",399,"4","e.100",80
"400","CTLB0360",16,16,13,14,15,1773,509,1288,0,"press","Go",1,"neutral","GW",400,"4","e.100",80
"401","DBGE0324",1,2,3,4,1,2650,773,587,-1,"press","noGo",0,"lose","NGL",1,"1","a.20",1
"402","DBGE0324",3,2,3,4,1,1485,986,1415,0,"press","Go",1,"neutral","GAL",2,"1","a.20",1
"403","DBGE0324",2,2,3,4,1,1588,864,884,1,"press","Go",1,"win","GW",3,"1","a.20",1
"404","DBGE0324",4,2,3,4,1,2794,548,0,1,"no_press","noGo",1,"win","NGW",4,"1","a.20",1
"405","DBGE0324",3,2,3,4,1,3515,879,676,-1,"press","Go",1,"lose","GAL",5,"1","a.20",1
"406","DBGE0324",4,2,3,4,1,3445,951,0,1,"no_press","noGo",1,"win","NGW",6,"1","a.20",2
"407","DBGE0324",2,2,3,4,1,1847,771,1136,0,"press","Go",1,"neutral","GW",7,"1","a.20",2
"408","DBGE0324",1,2,3,4,1,2080,574,0,0,"no_press","noGo",1,"neutral","NGL",8,"1","a.20",2
"409","DBGE0324",4,2,3,4,1,1932,923,0,1,"no_press","noGo",1,"win","NGW",9,"1","a.20",2
"410","DBGE0324",4,2,3,4,1,1509,955,0,1,"no_press","noGo",1,"win","NGW",10,"1","a.20",2
"411","DBGE0324",4,2,3,4,1,2464,816,0,0,"no_press","noGo",1,"neutral","NGW",11,"1","a.20",3
"412","DBGE0324",1,2,3,4,1,2018,678,0,0,"no_press","noGo",1,"neutral","NGL",12,"1","a.20",3
"413","DBGE0324",1,2,3,4,1,2506,531,0,0,"no_press","noGo",1,"neutral","NGL",13,"1","a.20",3
"414","DBGE0324",3,2,3,4,1,3128,734,1363,0,"press","Go",1,"neutral","GAL",14,"1","a.20",3
"415","DBGE0324",4,2,3,4,1,2615,721,0,0,"no_press","noGo",1,"neutral","NGW",15,"1","a.20",3
"416","DBGE0324",1,2,3,4,1,1847,552,0,0,"no_press","noGo",1,"neutral","NGL",16,"1","a.20",4
"417","DBGE0324",4,2,3,4,1,1266,650,0,1,"no_press","noGo",1,"win","NGW",17,"1","a.20",4
"418","DBGE0324",2,2,3,4,1,1879,762,934,1,"press","Go",1,"win","GW",18,"1","a.20",4
"419","DBGE0324",3,2,3,4,1,1467,619,0,-1,"no_press","Go",0,"lose","GAL",19,"1","a.20",4
"420","DBGE0324",1,2,3,4,1,1368,533,0,0,"no_press","noGo",1,"neutral","NGL",20,"1","a.20",4
"421","DBGE0324",2,2,3,4,1,1196,981,713,0,"press","Go",1,"neutral","GW",21,"1","b.40",5
"422","DBGE0324",2,2,3,4,1,2785,846,704,1,"press","Go",1,"win","GW",22,"1","b.40",5
"423","DBGE0324",3,2,3,4,1,2169,834,569,-1,"press","Go",1,"lose","GAL",23,"1","b.40",5
"424","DBGE0324",1,2,3,4,1,1967,509,0,0,"no_press","noGo",1,"neutral","NGL",24,"1","b.40",5
"425","DBGE0324",4,2,3,4,1,1939,796,0,0,"no_press","noGo",1,"neutral","NGW",25,"1","b.40",5
"426","DBGE0324",4,2,3,4,1,1503,699,0,1,"no_press","noGo",1,"win","NGW",26,"1","b.40",6
"427","DBGE0324",1,2,3,4,1,1189,939,0,-1,"no_press","noGo",1,"lose","NGL",27,"1","b.40",6
"428","DBGE0324",2,2,3,4,1,1494,736,1486,1,"press","Go",1,"win","GW",28,"1","b.40",6
"429","DBGE0324",3,2,3,4,1,2066,681,813,-1,"press","Go",1,"lose","GAL",29,"1","b.40",6
"430","DBGE0324",1,2,3,4,1,1965,870,0,0,"no_press","noGo",1,"neutral","NGL",30,"1","b.40",6
"431","DBGE0324",1,2,3,4,1,2298,995,0,0,"no_press","noGo",1,"neutral","NGL",31,"1","b.40",7
"432","DBGE0324",3,2,3,4,1,1504,746,0,-1,"no_press","Go",0,"lose","GAL",32,"1","b.40",7
"433","DBGE0324",3,2,3,4,1,1693,560,749,0,"press","Go",1,"neutral","GAL",33,"1","b.40",7
"434","DBGE0324",1,2,3,4,1,1329,754,0,0,"no_press","noGo",1,"neutral","NGL",34,"1","b.40",7
"435","DBGE0324",3,2,3,4,1,2493,586,773,0,"press","Go",1,"neutral","GAL",35,"1","b.40",7
"436","DBGE0324",2,2,3,4,1,1992,544,512,0,"press","Go",1,"neutral","GW",36,"1","b.40",8
"437","DBGE0324",3,2,3,4,1,2018,952,525,0,"press","Go",1,"neutral","GAL",37,"1","b.40",8
"438","DBGE0324",2,2,3,4,1,2980,634,480,1,"press","Go",1,"win","GW",38,"1","b.40",8
"439","DBGE0324",3,2,3,4,1,2776,640,536,0,"press","Go",1,"neutral","GAL",39,"1","b.40",8
"440","DBGE0324",2,2,3,4,1,2034,766,480,1,"press","Go",1,"win","GW",40,"1","b.40",8
"441","DBGE0324",3,2,3,4,1,1788,540,516,0,"press","Go",1,"neutral","GAL",41,"1","c.60",9
"442","DBGE0324",3,2,3,4,1,2001,785,476,0,"press","Go",1,"neutral","GAL",42,"1","c.60",9
"443","DBGE0324",2,2,3,4,1,2198,695,550,1,"press","Go",1,"win","GW",43,"1","c.60",9
"444","DBGE0324",1,2,3,4,1,1678,661,0,0,"no_press","noGo",1,"neutral","NGL",44,"1","c.60",9
"445","DBGE0324",1,2,3,4,1,2359,651,0,0,"no_press","noGo",1,"neutral","NGL",45,"1","c.60",9
"446","DBGE0324",4,2,3,4,1,2402,679,0,1,"no_press","noGo",1,"win","NGW",46,"1","c.60",10
"447","DBGE0324",1,2,3,4,1,1608,662,0,-1,"no_press","noGo",1,"lose","NGL",47,"1","c.60",10
"448","DBGE0324",4,2,3,4,1,2044,975,0,1,"no_press","noGo",1,"win","NGW",48,"1","c.60",10
"449","DBGE0324",3,2,3,4,1,3344,529,605,0,"press","Go",1,"neutral","GAL",49,"1","c.60",10
"450","DBGE0324",2,2,3,4,1,1182,719,1084,1,"press","Go",1,"win","GW",50,"1","c.60",10
"451","DBGE0324",3,2,3,4,1,2019,550,575,0,"press","Go",1,"neutral","GAL",51,"1","c.60",11
"452","DBGE0324",1,2,3,4,1,1204,813,0,-1,"no_press","noGo",1,"lose","NGL",52,"1","c.60",11
"453","DBGE0324",1,2,3,4,1,2097,572,0,0,"no_press","noGo",1,"neutral","NGL",53,"1","c.60",11
"454","DBGE0324",4,2,3,4,1,2029,609,0,1,"no_press","noGo",1,"win","NGW",54,"1","c.60",11
"455","DBGE0324",4,2,3,4,1,1810,952,0,0,"no_press","noGo",1,"neutral","NGW",55,"1","c.60",11
"456","DBGE0324",3,2,3,4,1,2323,928,747,0,"press","Go",1,"neutral","GAL",56,"1","c.60",12
"457","DBGE0324",3,2,3,4,1,1885,585,610,0,"press","Go",1,"neutral","GAL",57,"1","c.60",12
"458","DBGE0324",4,2,3,4,1,2700,865,0,1,"no_press","noGo",1,"win","NGW",58,"1","c.60",12
"459","DBGE0324",2,2,3,4,1,1743,965,666,1,"press","Go",1,"win","GW",59,"1","c.60",12
"460","DBGE0324",2,2,3,4,1,2467,641,607,1,"press","Go",1,"win","GW",60,"1","c.60",12
"461","DBGE0324",1,2,3,4,1,2615,882,0,0,"no_press","noGo",1,"neutral","NGL",61,"1","d.80",13
"462","DBGE0324",3,2,3,4,1,1495,822,942,0,"press","Go",1,"neutral","GAL",62,"1","d.80",13
"463","DBGE0324",4,2,3,4,1,2253,947,0,1,"no_press","noGo",1,"win","NGW",63,"1","d.80",13
"464","DBGE0324",3,2,3,4,1,1709,921,983,0,"press","Go",1,"neutral","GAL",64,"1","d.80",13
"465","DBGE0324",1,2,3,4,1,1547,909,0,0,"no_press","noGo",1,"neutral","NGL",65,"1","d.80",13
"466","DBGE0324",2,2,3,4,1,2853,712,543,1,"press","Go",1,"win","GW",66,"1","d.80",14
"467","DBGE0324",1,2,3,4,1,1951,718,0,-1,"no_press","noGo",1,"lose","NGL",67,"1","d.80",14
"468","DBGE0324",4,2,3,4,1,3560,926,0,1,"no_press","noGo",1,"win","NGW",68,"1","d.80",14
"469","DBGE0324",1,2,3,4,1,1463,622,0,0,"no_press","noGo",1,"neutral","NGL",69,"1","d.80",14
"470","DBGE0324",2,2,3,4,1,1403,663,573,1,"press","Go",1,"win","GW",70,"1","d.80",14
"471","DBGE0324",4,2,3,4,1,2336,508,0,1,"no_press","noGo",1,"win","NGW",71,"1","d.80",15
"472","DBGE0324",3,2,3,4,1,2887,701,616,0,"press","Go",1,"neutral","GAL",72,"1","d.80",15
"473","DBGE0324",2,2,3,4,1,2234,626,702,1,"press","Go",1,"win","GW",73,"1","d.80",15
"474","DBGE0324",4,2,3,4,1,2241,992,0,1,"no_press","noGo",1,"win","NGW",74,"1","d.80",15
"475","DBGE0324",3,2,3,4,1,1943,939,564,-1,"press","Go",1,"lose","GAL",75,"1","d.80",15
"476","DBGE0324",3,2,3,4,1,1479,605,618,0,"press","Go",1,"neutral","GAL",76,"1","d.80",16
"477","DBGE0324",4,2,3,4,1,2873,564,0,1,"no_press","noGo",1,"win","NGW",77,"1","d.80",16
"478","DBGE0324",4,2,3,4,1,2455,944,0,1,"no_press","noGo",1,"win","NGW",78,"1","d.80",16
"479","DBGE0324",1,2,3,4,1,2335,756,0,0,"no_press","noGo",1,"neutral","NGL",79,"1","d.80",16
"480","DBGE0324",2,2,3,4,1,1000,829,601,1,"press","Go",1,"win","GW",80,"1","d.80",16
"481","DBGE0324",2,2,3,4,1,1932,791,612,1,"press","Go",1,"win","GW",81,"1","e.100",17
"482","DBGE0324",2,2,3,4,1,1187,945,568,0,"press","Go",1,"neutral","GW",82,"1","e.100",17
"483","DBGE0324",3,2,3,4,1,1888,922,814,0,"press","Go",1,"neutral","GAL",83,"1","e.100",17
"484","DBGE0324",4,2,3,4,1,3016,624,0,1,"no_press","noGo",1,"win","NGW",84,"1","e.100",17
"485","DBGE0324",2,2,3,4,1,1000,682,806,1,"press","Go",1,"win","GW",85,"1","e.100",17
"486","DBGE0324",4,2,3,4,1,1693,754,0,1,"no_press","noGo",1,"win","NGW",86,"1","e.100",18
"487","DBGE0324",1,2,3,4,1,1524,944,0,0,"no_press","noGo",1,"neutral","NGL",87,"1","e.100",18
"488","DBGE0324",1,2,3,4,1,2538,524,0,0,"no_press","noGo",1,"neutral","NGL",88,"1","e.100",18
"489","DBGE0324",3,2,3,4,1,2086,654,745,-1,"press","Go",1,"lose","GAL",89,"1","e.100",18
"490","DBGE0324",2,2,3,4,1,2306,756,592,1,"press","Go",1,"win","GW",90,"1","e.100",18
"491","DBGE0324",2,2,3,4,1,2513,830,605,1,"press","Go",1,"win","GW",91,"1","e.100",19
"492","DBGE0324",4,2,3,4,1,2184,854,0,1,"no_press","noGo",1,"win","NGW",92,"1","e.100",19
"493","DBGE0324",1,2,3,4,1,2319,818,0,0,"no_press","noGo",1,"neutral","NGL",93,"1","e.100",19
"494","DBGE0324",3,2,3,4,1,2369,743,694,0,"press","Go",1,"neutral","GAL",94,"1","e.100",19
"495","DBGE0324",2,2,3,4,1,2367,585,560,1,"press","Go",1,"win","GW",95,"1","e.100",19
"496","DBGE0324",4,2,3,4,1,2145,570,0,0,"no_press","noGo",1,"neutral","NGW",96,"1","e.100",20
"497","DBGE0324",2,2,3,4,1,2344,972,480,1,"press","Go",1,"win","GW",97,"1","e.100",20
"498","DBGE0324",2,2,3,4,1,2014,557,530,0,"press","Go",1,"neutral","GW",98,"1","e.100",20
"499","DBGE0324",4,2,3,4,1,2080,922,0,1,"no_press","noGo",1,"win","NGW",99,"1","e.100",20
"500","DBGE0324",1,2,3,4,1,2041,768,0,-1,"no_press","noGo",1,"lose","NGL",100,"1","e.100",20
"501","DBGE0324",5,6,5,8,7,2761,749,441,0,"press","Go",1,"neutral","GAL",101,"2","a.20",21
"502","DBGE0324",8,6,5,8,7,2040,769,924,0,"press","noGo",0,"neutral","NGW",102,"2","a.20",21
"503","DBGE0324",7,6,5,8,7,2226,993,637,0,"press","noGo",0,"neutral","NGL",103,"2","a.20",21
"504","DBGE0324",7,6,5,8,7,1678,665,743,-1,"press","noGo",0,"lose","NGL",104,"2","a.20",21
"505","DBGE0324",6,6,5,8,7,1964,660,957,1,"press","Go",1,"win","GW",105,"2","a.20",21
"506","DBGE0324",5,6,5,8,7,1536,624,778,-1,"press","Go",1,"lose","GAL",106,"2","a.20",22
"507","DBGE0324",8,6,5,8,7,1578,968,0,1,"no_press","noGo",1,"win","NGW",107,"2","a.20",22
"508","DBGE0324",5,6,5,8,7,1771,514,0,-1,"no_press","Go",0,"lose","GAL",108,"2","a.20",22
"509","DBGE0324",7,6,5,8,7,1289,804,0,0,"no_press","noGo",1,"neutral","NGL",109,"2","a.20",22
"510","DBGE0324",5,6,5,8,7,1407,953,0,0,"no_press","Go",0,"neutral","GAL",110,"2","a.20",22
"511","DBGE0324",6,6,5,8,7,2588,957,657,1,"press","Go",1,"win","GW",111,"2","a.20",23
"512","DBGE0324",7,6,5,8,7,2907,965,0,0,"no_press","noGo",1,"neutral","NGL",112,"2","a.20",23
"513","DBGE0324",6,6,5,8,7,1908,645,474,1,"press","Go",1,"win","GW",113,"2","a.20",23
"514","DBGE0324",5,6,5,8,7,2184,746,0,-1,"no_press","Go",0,"lose","GAL",114,"2","a.20",23
"515","DBGE0324",7,6,5,8,7,2836,746,0,0,"no_press","noGo",1,"neutral","NGL",115,"2","a.20",23
"516","DBGE0324",6,6,5,8,7,2087,660,735,1,"press","Go",1,"win","GW",116,"2","a.20",24
"517","DBGE0324",8,6,5,8,7,2464,854,0,0,"no_press","noGo",1,"neutral","NGW",117,"2","a.20",24
"518","DBGE0324",8,6,5,8,7,1936,536,0,1,"no_press","noGo",1,"win","NGW",118,"2","a.20",24
"519","DBGE0324",5,6,5,8,7,3876,514,0,-1,"no_press","Go",0,"lose","GAL",119,"2","a.20",24
"520","DBGE0324",6,6,5,8,7,1456,694,1020,0,"press","Go",1,"neutral","GW",120,"2","a.20",24
"521","DBGE0324",7,6,5,8,7,1453,690,0,0,"no_press","noGo",1,"neutral","NGL",121,"2","b.40",25
"522","DBGE0324",5,6,5,8,7,1288,561,0,-1,"no_press","Go",0,"lose","GAL",122,"2","b.40",25
"523","DBGE0324",8,6,5,8,7,1938,779,0,1,"no_press","noGo",1,"win","NGW",123,"2","b.40",25
"524","DBGE0324",5,6,5,8,7,2000,859,0,-1,"no_press","Go",0,"lose","GAL",124,"2","b.40",25
"525","DBGE0324",5,6,5,8,7,1787,700,815,0,"press","Go",1,"neutral","GAL",125,"2","b.40",25
"526","DBGE0324",8,6,5,8,7,2164,997,0,0,"no_press","noGo",1,"neutral","NGW",126,"2","b.40",26
"527","DBGE0324",8,6,5,8,7,1779,931,0,1,"no_press","noGo",1,"win","NGW",127,"2","b.40",26
"528","DBGE0324",7,6,5,8,7,1509,870,0,0,"no_press","noGo",1,"neutral","NGL",128,"2","b.40",26
"529","DBGE0324",5,6,5,8,7,2828,623,1033,0,"press","Go",1,"neutral","GAL",129,"2","b.40",26
"530","DBGE0324",8,6,5,8,7,1546,763,0,1,"no_press","noGo",1,"win","NGW",130,"2","b.40",26
"531","DBGE0324",8,6,5,8,7,2274,859,0,1,"no_press","noGo",1,"win","NGW",131,"2","b.40",27
"532","DBGE0324",8,6,5,8,7,2262,909,0,1,"no_press","noGo",1,"win","NGW",132,"2","b.40",27
"533","DBGE0324",5,6,5,8,7,1773,626,998,0,"press","Go",1,"neutral","GAL",133,"2","b.40",27
"534","DBGE0324",8,6,5,8,7,1759,613,0,1,"no_press","noGo",1,"win","NGW",134,"2","b.40",27
"535","DBGE0324",8,6,5,8,7,2645,715,0,1,"no_press","noGo",1,"win","NGW",135,"2","b.40",27
"536","DBGE0324",5,6,5,8,7,1806,820,734,0,"press","Go",1,"neutral","GAL",136,"2","b.40",28
"537","DBGE0324",5,6,5,8,7,2254,938,760,0,"press","Go",1,"neutral","GAL",137,"2","b.40",28
"538","DBGE0324",5,6,5,8,7,2031,574,600,0,"press","Go",1,"neutral","GAL",138,"2","b.40",28
"539","DBGE0324",6,6,5,8,7,1479,984,736,1,"press","Go",1,"win","GW",139,"2","b.40",28
"540","DBGE0324",7,6,5,8,7,1959,673,0,-1,"no_press","noGo",1,"lose","NGL",140,"2","b.40",28
"541","DBGE0324",8,6,5,8,7,1432,808,0,1,"no_press","noGo",1,"win","NGW",141,"2","c.60",29
"542","DBGE0324",7,6,5,8,7,1861,743,0,0,"no_press","noGo",1,"neutral","NGL",142,"2","c.60",29
"543","DBGE0324",5,6,5,8,7,2609,686,642,-1,"press","Go",1,"lose","GAL",143,"2","c.60",29
"544","DBGE0324",6,6,5,8,7,2930,831,1011,1,"press","Go",1,"win","GW",144,"2","c.60",29
"545","DBGE0324",7,6,5,8,7,1772,650,0,0,"no_press","noGo",1,"neutral","NGL",145,"2","c.60",29
"546","DBGE0324",5,6,5,8,7,1385,784,798,0,"press","Go",1,"neutral","GAL",146,"2","c.60",30
"547","DBGE0324",8,6,5,8,7,1206,835,0,1,"no_press","noGo",1,"win","NGW",147,"2","c.60",30
"548","DBGE0324",6,6,5,8,7,1483,845,612,0,"press","Go",1,"neutral","GW",148,"2","c.60",30
"549","DBGE0324",5,6,5,8,7,2692,606,851,0,"press","Go",1,"neutral","GAL",149,"2","c.60",30
"550","DBGE0324",6,6,5,8,7,1249,729,782,1,"press","Go",1,"win","GW",150,"2","c.60",30
"551","DBGE0324",6,6,5,8,7,1505,795,686,1,"press","Go",1,"win","GW",151,"2","c.60",31
"552","DBGE0324",6,6,5,8,7,2695,512,590,1,"press","Go",1,"win","GW",152,"2","c.60",31
"553","DBGE0324",7,6,5,8,7,1354,566,0,0,"no_press","noGo",1,"neutral","NGL",153,"2","c.60",31
"554","DBGE0324",6,6,5,8,7,1842,772,877,1,"press","Go",1,"win","GW",154,"2","c.60",31
"555","DBGE0324",5,6,5,8,7,1842,831,449,0,"press","Go",1,"neutral","GAL",155,"2","c.60",31
"556","DBGE0324",6,6,5,8,7,1630,993,712,1,"press","Go",1,"win","GW",156,"2","c.60",32
"557","DBGE0324",5,6,5,8,7,1267,632,638,-1,"press","Go",1,"lose","GAL",157,"2","c.60",32
"558","DBGE0324",5,6,5,8,7,1864,549,435,0,"press","Go",1,"neutral","GAL",158,"2","c.60",32
"559","DBGE0324",7,6,5,8,7,1198,924,0,0,"no_press","noGo",1,"neutral","NGL",159,"2","c.60",32
"560","DBGE0324",6,6,5,8,7,1504,510,614,1,"press","Go",1,"win","GW",160,"2","c.60",32
"561","DBGE0324",8,6,5,8,7,1746,960,0,1,"no_press","noGo",1,"win","NGW",161,"2","d.80",33
"562","DBGE0324",7,6,5,8,7,2224,742,0,0,"no_press","noGo",1,"neutral","NGL",162,"2","d.80",33
"563","DBGE0324",8,6,5,8,7,2817,607,0,1,"no_press","noGo",1,"win","NGW",163,"2","d.80",33
"564","DBGE0324",7,6,5,8,7,1785,742,0,0,"no_press","noGo",1,"neutral","NGL",164,"2","d.80",33
"565","DBGE0324",5,6,5,8,7,2528,549,680,-1,"press","Go",1,"lose","GAL",165,"2","d.80",33
"566","DBGE0324",6,6,5,8,7,1666,536,655,1,"press","Go",1,"win","GW",166,"2","d.80",34
"567","DBGE0324",5,6,5,8,7,1966,649,657,0,"press","Go",1,"neutral","GAL",167,"2","d.80",34
"568","DBGE0324",6,6,5,8,7,1942,677,646,1,"press","Go",1,"win","GW",168,"2","d.80",34
"569","DBGE0324",7,6,5,8,7,2074,557,0,-1,"no_press","noGo",1,"lose","NGL",169,"2","d.80",34
"570","DBGE0324",8,6,5,8,7,1344,764,0,1,"no_press","noGo",1,"win","NGW",170,"2","d.80",34
"571","DBGE0324",6,6,5,8,7,1592,758,1034,1,"press","Go",1,"win","GW",171,"2","d.80",35
"572","DBGE0324",8,6,5,8,7,3412,563,0,1,"no_press","noGo",1,"win","NGW",172,"2","d.80",35
"573","DBGE0324",6,6,5,8,7,2272,905,957,1,"press","Go",1,"win","GW",173,"2","d.80",35
"574","DBGE0324",6,6,5,8,7,1715,849,613,1,"press","Go",1,"win","GW",174,"2","d.80",35
"575","DBGE0324",6,6,5,8,7,3279,564,571,0,"press","Go",1,"neutral","GW",175,"2","d.80",35
"576","DBGE0324",6,6,5,8,7,2388,706,693,1,"press","Go",1,"win","GW",176,"2","d.80",36
"577","DBGE0324",7,6,5,8,7,2381,844,0,0,"no_press","noGo",1,"neutral","NGL",177,"2","d.80",36
"578","DBGE0324",7,6,5,8,7,2032,744,0,0,"no_press","noGo",1,"neutral","NGL",178,"2","d.80",36
"579","DBGE0324",6,6,5,8,7,1826,813,627,0,"press","Go",1,"neutral","GW",179,"2","d.80",36
"580","DBGE0324",8,6,5,8,7,2448,895,0,1,"no_press","noGo",1,"win","NGW",180,"2","d.80",36
"581","DBGE0324",6,6,5,8,7,2257,972,1150,0,"press","Go",1,"neutral","GW",181,"2","e.100",37
"582","DBGE0324",7,6,5,8,7,3626,901,0,0,"no_press","noGo",1,"neutral","NGL",182,"2","e.100",37
"583","DBGE0324",8,6,5,8,7,2107,566,0,0,"no_press","noGo",1,"neutral","NGW",183,"2","e.100",37
"584","DBGE0324",5,6,5,8,7,2287,935,631,0,"press","Go",1,"neutral","GAL",184,"2","e.100",37
"585","DBGE0324",8,6,5,8,7,1537,760,0,1,"no_press","noGo",1,"win","NGW",185,"2","e.100",37
"586","DBGE0324",7,6,5,8,7,1457,573,0,0,"no_press","noGo",1,"neutral","NGL",186,"2","e.100",38
"587","DBGE0324",7,6,5,8,7,1869,502,0,-1,"no_press","noGo",1,"lose","NGL",187,"2","e.100",38
"588","DBGE0324",7,6,5,8,7,1318,669,0,0,"no_press","noGo",1,"neutral","NGL",188,"2","e.100",38
"589","DBGE0324",8,6,5,8,7,2998,964,0,0,"no_press","noGo",1,"neutral","NGW",189,"2","e.100",38
"590","DBGE0324",5,6,5,8,7,1729,853,622,0,"press","Go",1,"neutral","GAL",190,"2","e.100",38
"591","DBGE0324",7,6,5,8,7,1824,642,0,0,"no_press","noGo",1,"neutral","NGL",191,"2","e.100",39
"592","DBGE0324",8,6,5,8,7,2664,551,0,1,"no_press","noGo",1,"win","NGW",192,"2","e.100",39
"593","DBGE0324",6,6,5,8,7,1635,668,461,1,"press","Go",1,"win","GW",193,"2","e.100",39
"594","DBGE0324",7,6,5,8,7,2247,789,0,0,"no_press","noGo",1,"neutral","NGL",194,"2","e.100",39
"595","DBGE0324",8,6,5,8,7,1948,886,0,1,"no_press","noGo",1,"win","NGW",195,"2","e.100",39
"596","DBGE0324",5,6,5,8,7,1544,766,676,0,"press","Go",1,"neutral","GAL",196,"2","e.100",40
"597","DBGE0324",7,6,5,8,7,1855,785,0,-1,"no_press","noGo",1,"lose","NGL",197,"2","e.100",40
"598","DBGE0324",7,6,5,8,7,1229,504,0,0,"no_press","noGo",1,"neutral","NGL",198,"2","e.100",40
"599","DBGE0324",8,6,5,8,7,1289,569,0,0,"no_press","noGo",1,"neutral","NGW",199,"2","e.100",40
"600","DBGE0324",6,6,5,8,7,2548,752,767,1,"press","Go",1,"win","GW",200,"2","e.100",40
"601","DBGE0324",9,12,9,10,11,1238,871,796,0,"press","Go",1,"neutral","GAL",201,"3","a.20",41
"602","DBGE0324",10,12,9,10,11,2540,505,641,0,"press","noGo",0,"neutral","NGW",202,"3","a.20",41
"603","DBGE0324",11,12,9,10,11,1802,952,495,-1,"press","noGo",0,"lose","NGL",203,"3","a.20",41
"604","DBGE0324",11,12,9,10,11,2122,804,1006,-1,"press","noGo",0,"lose","NGL",204,"3","a.20",41
"605","DBGE0324",11,12,9,10,11,2601,779,0,0,"no_press","noGo",1,"neutral","NGL",205,"3","a.20",41
"606","DBGE0324",10,12,9,10,11,1452,969,954,1,"press","noGo",0,"win","NGW",206,"3","a.20",42
"607","DBGE0324",9,12,9,10,11,2084,757,826,0,"press","Go",1,"neutral","GAL",207,"3","a.20",42
"608","DBGE0324",9,12,9,10,11,1807,908,716,-1,"press","Go",1,"lose","GAL",208,"3","a.20",42
"609","DBGE0324",10,12,9,10,11,2019,823,719,0,"press","noGo",0,"neutral","NGW",209,"3","a.20",42
"610","DBGE0324",12,12,9,10,11,1845,749,0,0,"no_press","Go",0,"neutral","GW",210,"3","a.20",42
"611","DBGE0324",11,12,9,10,11,1678,886,0,0,"no_press","noGo",1,"neutral","NGL",211,"3","a.20",43
"612","DBGE0324",9,12,9,10,11,2571,829,808,-1,"press","Go",1,"lose","GAL",212,"3","a.20",43
"613","DBGE0324",10,12,9,10,11,2719,709,571,0,"press","noGo",0,"neutral","NGW",213,"3","a.20",43
"614","DBGE0324",9,12,9,10,11,2026,659,606,0,"press","Go",1,"neutral","GAL",214,"3","a.20",43
"615","DBGE0324",11,12,9,10,11,1000,949,0,0,"no_press","noGo",1,"neutral","NGL",215,"3","a.20",43
"616","DBGE0324",12,12,9,10,11,2283,573,0,1,"no_press","Go",0,"win","GW",216,"3","a.20",44
"617","DBGE0324",11,12,9,10,11,1990,783,0,0,"no_press","noGo",1,"neutral","NGL",217,"3","a.20",44
"618","DBGE0324",10,12,9,10,11,1484,723,624,1,"press","noGo",0,"win","NGW",218,"3","a.20",44
"619","DBGE0324",9,12,9,10,11,1825,852,761,0,"press","Go",1,"neutral","GAL",219,"3","a.20",44
"620","DBGE0324",9,12,9,10,11,2490,969,646,-1,"press","Go",1,"lose","GAL",220,"3","a.20",44
"621","DBGE0324",10,12,9,10,11,3029,975,614,0,"press","noGo",0,"neutral","NGW",221,"3","b.40",45
"622","DBGE0324",9,12,9,10,11,2547,630,543,0,"press","Go",1,"neutral","GAL",222,"3","b.40",45
"623","DBGE0324",9,12,9,10,11,1753,629,612,-1,"press","Go",1,"lose","GAL",223,"3","b.40",45
"624","DBGE0324",9,12,9,10,11,2038,663,591,0,"press","Go",1,"neutral","GAL",224,"3","b.40",45
"625","DBGE0324",10,12,9,10,11,2493,771,549,0,"press","noGo",0,"neutral","NGW",225,"3","b.40",45
"626","DBGE0324",12,12,9,10,11,2323,666,0,1,"no_press","Go",0,"win","GW",226,"3","b.40",46
"627","DBGE0324",10,12,9,10,11,1965,938,632,0,"press","noGo",0,"neutral","NGW",227,"3","b.40",46
"628","DBGE0324",10,12,9,10,11,2524,793,956,0,"press","noGo",0,"neutral","NGW",228,"3","b.40",46
"629","DBGE0324",10,12,9,10,11,2330,653,611,0,"press","noGo",0,"neutral","NGW",229,"3","b.40",46
"630","DBGE0324",11,12,9,10,11,1889,673,0,-1,"no_press","noGo",1,"lose","NGL",230,"3","b.40",46
"631","DBGE0324",11,12,9,10,11,2315,691,0,0,"no_press","noGo",1,"neutral","NGL",231,"3","b.40",47
"632","DBGE0324",12,12,9,10,11,2131,991,0,1,"no_press","Go",0,"win","GW",232,"3","b.40",47
"633","DBGE0324",11,12,9,10,11,3020,670,0,0,"no_press","noGo",1,"neutral","NGL",233,"3","b.40",47
"634","DBGE0324",11,12,9,10,11,2538,848,0,0,"no_press","noGo",1,"neutral","NGL",234,"3","b.40",47
"635","DBGE0324",12,12,9,10,11,1613,981,0,0,"no_press","Go",0,"neutral","GW",235,"3","b.40",47
"636","DBGE0324",9,12,9,10,11,2885,642,714,0,"press","Go",1,"neutral","GAL",236,"3","b.40",48
"637","DBGE0324",11,12,9,10,11,1848,762,0,0,"no_press","noGo",1,"neutral","NGL",237,"3","b.40",48
"638","DBGE0324",10,12,9,10,11,3029,623,619,0,"press","noGo",0,"neutral","NGW",238,"3","b.40",48
"639","DBGE0324",12,12,9,10,11,2357,638,0,1,"no_press","Go",0,"win","GW",239,"3","b.40",48
"640","DBGE0324",10,12,9,10,11,1795,808,605,0,"press","noGo",0,"neutral","NGW",240,"3","b.40",48
"641","DBGE0324",12,12,9,10,11,1554,800,0,0,"no_press","Go",0,"neutral","GW",241,"3","c.60",49
"642","DBGE0324",11,12,9,10,11,2380,562,0,-1,"no_press","noGo",1,"lose","NGL",242,"3","c.60",49
"643","DBGE0324",9,12,9,10,11,2057,843,648,0,"press","Go",1,"neutral","GAL",243,"3","c.60",49
"644","DBGE0324",10,12,9,10,11,1000,753,716,0,"press","noGo",0,"neutral","NGW",244,"3","c.60",49
"645","DBGE0324",12,12,9,10,11,1931,673,0,0,"no_press","Go",0,"neutral","GW",245,"3","c.60",49
"646","DBGE0324",10,12,9,10,11,2228,879,647,0,"press","noGo",0,"neutral","NGW",246,"3","c.60",50
"647","DBGE0324",12,12,9,10,11,1465,595,0,0,"no_press","Go",0,"neutral","GW",247,"3","c.60",50
"648","DBGE0324",12,12,9,10,11,1588,907,0,0,"no_press","Go",0,"neutral","GW",248,"3","c.60",50
"649","DBGE0324",11,12,9,10,11,2745,977,0,0,"no_press","noGo",1,"neutral","NGL",249,"3","c.60",50
"650","DBGE0324",11,12,9,10,11,2129,586,0,0,"no_press","noGo",1,"neutral","NGL",250,"3","c.60",50
"651","DBGE0324",11,12,9,10,11,1829,572,0,0,"no_press","noGo",1,"neutral","NGL",251,"3","c.60",51
"652","DBGE0324",10,12,9,10,11,1842,678,554,0,"press","noGo",0,"neutral","NGW",252,"3","c.60",51
"653","DBGE0324",10,12,9,10,11,2285,799,676,1,"press","noGo",0,"win","NGW",253,"3","c.60",51
"654","DBGE0324",11,12,9,10,11,2404,707,0,0,"no_press","noGo",1,"neutral","NGL",254,"3","c.60",51
"655","DBGE0324",12,12,9,10,11,2964,769,0,0,"no_press","Go",0,"neutral","GW",255,"3","c.60",51
"656","DBGE0324",12,12,9,10,11,2140,748,0,0,"no_press","Go",0,"neutral","GW",256,"3","c.60",52
"657","DBGE0324",9,12,9,10,11,2206,714,737,-1,"press","Go",1,"lose","GAL",257,"3","c.60",52
"658","DBGE0324",12,12,9,10,11,1763,607,0,0,"no_press","Go",0,"neutral","GW",258,"3","c.60",52
"659","DBGE0324",11,12,9,10,11,1462,689,0,-1,"no_press","noGo",1,"lose","NGL",259,"3","c.60",52
"660","DBGE0324",9,12,9,10,11,2252,927,594,0,"press","Go",1,"neutral","GAL",260,"3","c.60",52
"661","DBGE0324",11,12,9,10,11,2045,511,0,0,"no_press","noGo",1,"neutral","NGL",261,"3","d.80",53
"662","DBGE0324",12,12,9,10,11,2481,764,0,0,"no_press","Go",0,"neutral","GW",262,"3","d.80",53
"663","DBGE0324",11,12,9,10,11,1717,762,0,0,"no_press","noGo",1,"neutral","NGL",263,"3","d.80",53
"664","DBGE0324",10,12,9,10,11,1921,700,692,0,"press","noGo",0,"neutral","NGW",264,"3","d.80",53
"665","DBGE0324",9,12,9,10,11,1841,504,944,0,"press","Go",1,"neutral","GAL",265,"3","d.80",53
"666","DBGE0324",12,12,9,10,11,1674,941,0,0,"no_press","Go",0,"neutral","GW",266,"3","d.80",54
"667","DBGE0324",9,12,9,10,11,2523,974,508,0,"press","Go",1,"neutral","GAL",267,"3","d.80",54
"668","DBGE0324",11,12,9,10,11,2818,983,0,0,"no_press","noGo",1,"neutral","NGL",268,"3","d.80",54
"669","DBGE0324",11,12,9,10,11,1249,641,0,0,"no_press","noGo",1,"neutral","NGL",269,"3","d.80",54
"670","DBGE0324",10,12,9,10,11,1822,640,0,0,"no_press","noGo",1,"neutral","NGW",270,"3","d.80",54
"671","DBGE0324",12,12,9,10,11,2104,534,0,0,"no_press","Go",0,"neutral","GW",271,"3","d.80",55
"672","DBGE0324",11,12,9,10,11,1326,573,0,-1,"no_press","noGo",1,"lose","NGL",272,"3","d.80",55
"673","DBGE0324",9,12,9,10,11,2337,864,759,0,"press","Go",1,"neutral","GAL",273,"3","d.80",55
"674","DBGE0324",12,12,9,10,11,2036,882,0,0,"no_press","Go",0,"neutral","GW",274,"3","d.80",55
"675","DBGE0324",10,12,9,10,11,1000,984,636,0,"press","noGo",0,"neutral","NGW",275,"3","d.80",55
"676","DBGE0324",12,12,9,10,11,2227,841,0,0,"no_press","Go",0,"neutral","GW",276,"3","d.80",56
"677","DBGE0324",10,12,9,10,11,1715,689,636,0,"press","noGo",0,"neutral","NGW",277,"3","d.80",56
"678","DBGE0324",11,12,9,10,11,1671,718,0,0,"no_press","noGo",1,"neutral","NGL",278,"3","d.80",56
"679","DBGE0324",12,12,9,10,11,2126,682,0,0,"no_press","Go",0,"neutral","GW",279,"3","d.80",56
"680","DBGE0324",10,12,9,10,11,2299,675,507,0,"press","noGo",0,"neutral","NGW",280,"3","d.80",56
"681","DBGE0324",10,12,9,10,11,1764,590,503,1,"press","noGo",0,"win","NGW",281,"3","e.100",57
"682","DBGE0324",9,12,9,10,11,1596,915,556,0,"press","Go",1,"neutral","GAL",282,"3","e.100",57
"683","DBGE0324",9,12,9,10,11,1812,915,793,0,"press","Go",1,"neutral","GAL",283,"3","e.100",57
"684","DBGE0324",12,12,9,10,11,2266,675,0,0,"no_press","Go",0,"neutral","GW",284,"3","e.100",57
"685","DBGE0324",9,12,9,10,11,1000,522,949,0,"press","Go",1,"neutral","GAL",285,"3","e.100",57
"686","DBGE0324",9,12,9,10,11,1798,765,547,0,"press","Go",1,"neutral","GAL",286,"3","e.100",58
"687","DBGE0324",12,12,9,10,11,2451,996,0,0,"no_press","Go",0,"neutral","GW",287,"3","e.100",58
"688","DBGE0324",9,12,9,10,11,1402,551,571,0,"press","Go",1,"neutral","GAL",288,"3","e.100",58
"689","DBGE0324",12,12,9,10,11,1482,916,0,0,"no_press","Go",0,"neutral","GW",289,"3","e.100",58
"690","DBGE0324",11,12,9,10,11,1191,939,0,0,"no_press","noGo",1,"neutral","NGL",290,"3","e.100",58
"691","DBGE0324",12,12,9,10,11,1729,897,0,1,"no_press","Go",0,"win","GW",291,"3","e.100",59
"692","DBGE0324",10,12,9,10,11,2318,898,413,0,"press","noGo",0,"neutral","NGW",292,"3","e.100",59
"693","DBGE0324",12,12,9,10,11,1570,710,0,0,"no_press","Go",0,"neutral","GW",293,"3","e.100",59
"694","DBGE0324",10,12,9,10,11,1885,817,548,0,"press","noGo",0,"neutral","NGW",294,"3","e.100",59
"695","DBGE0324",11,12,9,10,11,1000,980,0,-1,"no_press","noGo",1,"lose","NGL",295,"3","e.100",59
"696","DBGE0324",9,12,9,10,11,1250,758,560,0,"press","Go",1,"neutral","GAL",296,"3","e.100",60
"697","DBGE0324",9,12,9,10,11,2382,570,557,0,"press","Go",1,"neutral","GAL",297,"3","e.100",60
"698","DBGE0324",10,12,9,10,11,2207,632,847,0,"press","noGo",0,"neutral","NGW",298,"3","e.100",60
"699","DBGE0324",12,12,9,10,11,2237,538,0,0,"no_press","Go",0,"neutral","GW",299,"3","e.100",60
"700","DBGE0324",9,12,9,10,11,1922,600,524,0,"press","Go",1,"neutral","GAL",300,"3","e.100",60
"701","DBGE0324",14,16,13,14,15,2195,757,1124,0,"press","noGo",0,"neutral","NGW",301,"4","a.20",61
"702","DBGE0324",16,16,13,14,15,2166,854,573,1,"press","Go",1,"win","GW",302,"4","a.20",61
"703","DBGE0324",13,16,13,14,15,2724,874,767,0,"press","Go",1,"neutral","GAL",303,"4","a.20",61
"704","DBGE0324",13,16,13,14,15,2977,942,820,0,"press","Go",1,"neutral","GAL",304,"4","a.20",61
"705","DBGE0324",14,16,13,14,15,1364,752,0,1,"no_press","noGo",1,"win","NGW",305,"4","a.20",61
"706","DBGE0324",16,16,13,14,15,2664,707,813,1,"press","Go",1,"win","GW",306,"4","a.20",62
"707","DBGE0324",16,16,13,14,15,1547,862,882,0,"press","Go",1,"neutral","GW",307,"4","a.20",62
"708","DBGE0324",14,16,13,14,15,2209,892,0,1,"no_press","noGo",1,"win","NGW",308,"4","a.20",62
"709","DBGE0324",15,16,13,14,15,1885,655,0,0,"no_press","noGo",1,"neutral","NGL",309,"4","a.20",62
"710","DBGE0324",14,16,13,14,15,2822,942,0,1,"no_press","noGo",1,"win","NGW",310,"4","a.20",62
"711","DBGE0324",16,16,13,14,15,1552,918,601,1,"press","Go",1,"win","GW",311,"4","a.20",63
"712","DBGE0324",13,16,13,14,15,1941,704,0,0,"no_press","Go",0,"neutral","GAL",312,"4","a.20",63
"713","DBGE0324",15,16,13,14,15,1562,887,876,-1,"press","noGo",0,"lose","NGL",313,"4","a.20",63
"714","DBGE0324",16,16,13,14,15,1555,703,1118,1,"press","Go",1,"win","GW",314,"4","a.20",63
"715","DBGE0324",13,16,13,14,15,1826,585,1048,0,"press","Go",1,"neutral","GAL",315,"4","a.20",63
"716","DBGE0324",15,16,13,14,15,2444,738,0,0,"no_press","noGo",1,"neutral","NGL",316,"4","a.20",64
"717","DBGE0324",15,16,13,14,15,1634,868,0,0,"no_press","noGo",1,"neutral","NGL",317,"4","a.20",64
"718","DBGE0324",15,16,13,14,15,2386,690,0,0,"no_press","noGo",1,"neutral","NGL",318,"4","a.20",64
"719","DBGE0324",14,16,13,14,15,2072,579,0,1,"no_press","noGo",1,"win","NGW",319,"4","a.20",64
"720","DBGE0324",13,16,13,14,15,1883,724,840,0,"press","Go",1,"neutral","GAL",320,"4","a.20",64
"721","DBGE0324",16,16,13,14,15,2855,813,578,1,"press","Go",1,"win","GW",321,"4","b.40",65
"722","DBGE0324",13,16,13,14,15,1784,866,1160,0,"press","Go",1,"neutral","GAL",322,"4","b.40",65
"723","DBGE0324",15,16,13,14,15,1491,596,0,0,"no_press","noGo",1,"neutral","NGL",323,"4","b.40",65
"724","DBGE0324",13,16,13,14,15,2066,687,677,-1,"press","Go",1,"lose","GAL",324,"4","b.40",65
"725","DBGE0324",16,16,13,14,15,2299,644,642,1,"press","Go",1,"win","GW",325,"4","b.40",65
"726","DBGE0324",15,16,13,14,15,2372,794,0,-1,"no_press","noGo",1,"lose","NGL",326,"4","b.40",66
"727","DBGE0324",14,16,13,14,15,1559,751,0,1,"no_press","noGo",1,"win","NGW",327,"4","b.40",66
"728","DBGE0324",16,16,13,14,15,2303,688,600,1,"press","Go",1,"win","GW",328,"4","b.40",66
"729","DBGE0324",14,16,13,14,15,1346,989,0,1,"no_press","noGo",1,"win","NGW",329,"4","b.40",66
"730","DBGE0324",14,16,13,14,15,2085,569,0,1,"no_press","noGo",1,"win","NGW",330,"4","b.40",66
"731","DBGE0324",14,16,13,14,15,2125,750,0,0,"no_press","noGo",1,"neutral","NGW",331,"4","b.40",67
"732","DBGE0324",16,16,13,14,15,2745,834,649,1,"press","Go",1,"win","GW",332,"4","b.40",67
"733","DBGE0324",14,16,13,14,15,2942,927,0,1,"no_press","noGo",1,"win","NGW",333,"4","b.40",67
"734","DBGE0324",13,16,13,14,15,2218,973,790,0,"press","Go",1,"neutral","GAL",334,"4","b.40",67
"735","DBGE0324",15,16,13,14,15,2008,918,0,0,"no_press","noGo",1,"neutral","NGL",335,"4","b.40",67
"736","DBGE0324",15,16,13,14,15,2503,758,0,0,"no_press","noGo",1,"neutral","NGL",336,"4","b.40",68
"737","DBGE0324",13,16,13,14,15,2250,978,704,-1,"press","Go",1,"lose","GAL",337,"4","b.40",68
"738","DBGE0324",14,16,13,14,15,1423,818,0,1,"no_press","noGo",1,"win","NGW",338,"4","b.40",68
"739","DBGE0324",15,16,13,14,15,1338,628,0,0,"no_press","noGo",1,"neutral","NGL",339,"4","b.40",68
"740","DBGE0324",13,16,13,14,15,1963,893,759,0,"press","Go",1,"neutral","GAL",340,"4","b.40",68
"741","DBGE0324",15,16,13,14,15,1461,546,0,0,"no_press","noGo",1,"neutral","NGL",341,"4","c.60",69
"742","DBGE0324",16,16,13,14,15,1954,837,562,1,"press","Go",1,"win","GW",342,"4","c.60",69
"743","DBGE0324",14,16,13,14,15,2131,799,0,0,"no_press","noGo",1,"neutral","NGW",343,"4","c.60",69
"744","DBGE0324",15,16,13,14,15,2063,589,0,0,"no_press","noGo",1,"neutral","NGL",344,"4","c.60",69
"745","DBGE0324",13,16,13,14,15,1795,768,955,0,"press","Go",1,"neutral","GAL",345,"4","c.60",69
"746","DBGE0324",16,16,13,14,15,2304,874,757,1,"press","Go",1,"win","GW",346,"4","c.60",70
"747","DBGE0324",16,16,13,14,15,2381,608,778,0,"press","Go",1,"neutral","GW",347,"4","c.60",70
"748","DBGE0324",13,16,13,14,15,2291,796,636,0,"press","Go",1,"neutral","GAL",348,"4","c.60",70
"749","DBGE0324",16,16,13,14,15,2478,818,586,0,"press","Go",1,"neutral","GW",349,"4","c.60",70
"750","DBGE0324",13,16,13,14,15,1445,709,745,0,"press","Go",1,"neutral","GAL",350,"4","c.60",70
"751","DBGE0324",15,16,13,14,15,1511,844,0,-1,"no_press","noGo",1,"lose","NGL",351,"4","c.60",71
"752","DBGE0324",16,16,13,14,15,2103,796,595,1,"press","Go",1,"win","GW",352,"4","c.60",71
"753","DBGE0324",13,16,13,14,15,2129,528,635,0,"press","Go",1,"neutral","GAL",353,"4","c.60",71
"754","DBGE0324",15,16,13,14,15,1591,862,0,0,"no_press","noGo",1,"neutral","NGL",354,"4","c.60",71
"755","DBGE0324",16,16,13,14,15,1237,909,467,1,"press","Go",1,"win","GW",355,"4","c.60",71
"756","DBGE0324",15,16,13,14,15,3099,556,0,-1,"no_press","noGo",1,"lose","NGL",356,"4","c.60",72
"757","DBGE0324",16,16,13,14,15,2349,675,688,1,"press","Go",1,"win","GW",357,"4","c.60",72
"758","DBGE0324",14,16,13,14,15,1372,534,0,1,"no_press","noGo",1,"win","NGW",358,"4","c.60",72
"759","DBGE0324",14,16,13,14,15,2088,652,0,0,"no_press","noGo",1,"neutral","NGW",359,"4","c.60",72
"760","DBGE0324",14,16,13,14,15,1511,554,0,1,"no_press","noGo",1,"win","NGW",360,"4","c.60",72
"761","DBGE0324",13,16,13,14,15,1576,990,714,0,"press","Go",1,"neutral","GAL",361,"4","d.80",73
"762","DBGE0324",14,16,13,14,15,1166,688,0,1,"no_press","noGo",1,"win","NGW",362,"4","d.80",73
"763","DBGE0324",16,16,13,14,15,2004,685,578,1,"press","Go",1,"win","GW",363,"4","d.80",73
"764","DBGE0324",14,16,13,14,15,2228,868,0,0,"no_press","noGo",1,"neutral","NGW",364,"4","d.80",73
"765","DBGE0324",15,16,13,14,15,3385,747,0,0,"no_press","noGo",1,"neutral","NGL",365,"4","d.80",73
"766","DBGE0324",16,16,13,14,15,2257,603,646,1,"press","Go",1,"win","GW",366,"4","d.80",74
"767","DBGE0324",15,16,13,14,15,2518,531,0,-1,"no_press","noGo",1,"lose","NGL",367,"4","d.80",74
"768","DBGE0324",15,16,13,14,15,1761,759,0,0,"no_press","noGo",1,"neutral","NGL",368,"4","d.80",74
"769","DBGE0324",15,16,13,14,15,1000,838,0,0,"no_press","noGo",1,"neutral","NGL",369,"4","d.80",74
"770","DBGE0324",13,16,13,14,15,1615,778,794,0,"press","Go",1,"neutral","GAL",370,"4","d.80",74
"771","DBGE0324",16,16,13,14,15,1990,697,580,1,"press","Go",1,"win","GW",371,"4","d.80",75
"772","DBGE0324",16,16,13,14,15,1752,760,719,0,"press","Go",1,"neutral","GW",372,"4","d.80",75
"773","DBGE0324",13,16,13,14,15,2360,508,654,0,"press","Go",1,"neutral","GAL",373,"4","d.80",75
"774","DBGE0324",13,16,13,14,15,2234,747,575,0,"press","Go",1,"neutral","GAL",374,"4","d.80",75
"775","DBGE0324",16,16,13,14,15,1597,970,670,1,"press","Go",1,"win","GW",375,"4","d.80",75
"776","DBGE0324",16,16,13,14,15,1742,642,491,0,"press","Go",1,"neutral","GW",376,"4","d.80",76
"777","DBGE0324",16,16,13,14,15,1275,851,538,1,"press","Go",1,"win","GW",377,"4","d.80",76
"778","DBGE0324",13,16,13,14,15,1246,714,540,-1,"press","Go",1,"lose","GAL",378,"4","d.80",76
"779","DBGE0324",14,16,13,14,15,2125,759,0,1,"no_press","noGo",1,"win","NGW",379,"4","d.80",76
"780","DBGE0324",14,16,13,14,15,2245,852,0,1,"no_press","noGo",1,"win","NGW",380,"4","d.80",76
"781","DBGE0324",16,16,13,14,15,1485,761,638,1,"press","Go",1,"win","GW",381,"4","e.100",77
"782","DBGE0324",13,16,13,14,15,1614,786,586,0,"press","Go",1,"neutral","GAL",382,"4","e.100",77
"783","DBGE0324",13,16,13,14,15,2579,745,781,0,"press","Go",1,"neutral","GAL",383,"4","e.100",77
"784","DBGE0324",15,16,13,14,15,2277,682,0,0,"no_press","noGo",1,"neutral","NGL",384,"4","e.100",77
"785","DBGE0324",13,16,13,14,15,1000,985,865,-1,"press","Go",1,"lose","GAL",385,"4","e.100",77
"786","DBGE0324",15,16,13,14,15,1509,900,0,0,"no_press","noGo",1,"neutral","NGL",386,"4","e.100",78
"787","DBGE0324",14,16,13,14,15,2176,580,0,1,"no_press","noGo",1,"win","NGW",387,"4","e.100",78
"788","DBGE0324",15,16,13,14,15,2315,569,0,0,"no_press","noGo",1,"neutral","NGL",388,"4","e.100",78
"789","DBGE0324",14,16,13,14,15,1655,695,0,1,"no_press","noGo",1,"win","NGW",389,"4","e.100",78
"790","DBGE0324",15,16,13,14,15,2864,870,0,-1,"no_press","noGo",1,"lose","NGL",390,"4","e.100",78
"791","DBGE0324",16,16,13,14,15,1702,948,570,1,"press","Go",1,"win","GW",391,"4","e.100",79
"792","DBGE0324",14,16,13,14,15,1433,678,0,1,"no_press","noGo",1,"win","NGW",392,"4","e.100",79
"793","DBGE0324",15,16,13,14,15,1598,627,0,0,"no_press","noGo",1,"neutral","NGL",393,"4","e.100",79
"794","DBGE0324",13,16,13,14,15,1430,810,768,0,"press","Go",1,"neutral","GAL",394,"4","e.100",79
"795","DBGE0324",14,16,13,14,15,5000,948,0,1,"no_press","noGo",1,"win","NGW",395,"4","e.100",79
"796","DBGE0324",15,16,13,14,15,1444,724,0,0,"no_press","noGo",1,"neutral","NGL",396,"4","e.100",80
"797","DBGE0324",13,16,13,14,15,2239,816,608,0,"press","Go",1,"neutral","GAL",397,"4","e.100",80
"798","DBGE0324",14,16,13,14,15,1861,756,0,1,"no_press","noGo",1,"win","NGW",398,"4","e.100",80
"799","DBGE0324",13,16,13,14,15,1942,640,817,0,"press","Go",1,"neutral","GAL",399,"4","e.100",80
"800","DBGE0324",14,16,13,14,15,1330,776,0,0,"no_press","noGo",1,"neutral","NGW",400,"4","e.100",80
"801","EMPTY0216",2,2,1,4,3,2369,578,0,0,"no_press","Go",0,"neutral","GW",1,"1","a.20",1
"802","EMPTY0216",1,2,1,4,3,1596,732,626,0,"press","Go",1,"neutral","GAL",2,"1","a.20",1
"803","EMPTY0216",2,2,1,4,3,2645,523,0,1,"no_press","Go",0,"win","GW",3,"1","a.20",1
"804","EMPTY0216",3,2,1,4,3,2381,789,1087,-1,"press","noGo",0,"lose","NGL",4,"1","a.20",1
"805","EMPTY0216",1,2,1,4,3,1879,617,755,0,"press","Go",1,"neutral","GAL",5,"1","a.20",1
"806","EMPTY0216",4,2,1,4,3,2822,555,985,0,"press","noGo",0,"neutral","NGW",6,"1","a.20",2
"807","EMPTY0216",2,2,1,4,3,2184,545,0,1,"no_press","Go",0,"win","GW",7,"1","a.20",2
"808","EMPTY0216",2,2,1,4,3,1635,759,0,0,"no_press","Go",0,"neutral","GW",8,"1","a.20",2
"809","EMPTY0216",2,2,1,4,3,1941,690,0,1,"no_press","Go",0,"win","GW",9,"1","a.20",2
"810","EMPTY0216",1,2,1,4,3,1763,685,736,0,"press","Go",1,"neutral","GAL",10,"1","a.20",2
"811","EMPTY0216",1,2,1,4,3,3279,598,765,0,"press","Go",1,"neutral","GAL",11,"1","a.20",3
"812","EMPTY0216",2,2,1,4,3,2323,666,0,0,"no_press","Go",0,"neutral","GW",12,"1","a.20",3
"813","EMPTY0216",3,2,1,4,3,1576,959,0,0,"no_press","noGo",1,"neutral","NGL",13,"1","a.20",3
"814","EMPTY0216",1,2,1,4,3,1761,934,0,0,"no_press","Go",0,"neutral","GAL",14,"1","a.20",3
"815","EMPTY0216",3,2,1,4,3,1614,962,0,0,"no_press","noGo",1,"neutral","NGL",15,"1","a.20",3
"816","EMPTY0216",1,2,1,4,3,1826,882,756,0,"press","Go",1,"neutral","GAL",16,"1","a.20",4
"817","EMPTY0216",4,2,1,4,3,2372,885,862,0,"press","noGo",0,"neutral","NGW",17,"1","a.20",4
"818","EMPTY0216",1,2,1,4,3,1463,544,620,-1,"press","Go",1,"lose","GAL",18,"1","a.20",4
"819","EMPTY0216",2,2,1,4,3,1966,562,0,0,"no_press","Go",0,"neutral","GW",19,"1","a.20",4
"820","EMPTY0216",3,2,1,4,3,2122,648,0,-1,"no_press","noGo",1,"lose","NGL",20,"1","a.20",4
"821","EMPTY0216",2,2,1,4,3,1802,663,0,0,"no_press","Go",0,"neutral","GW",21,"1","b.40",5
"822","EMPTY0216",1,2,1,4,3,2040,568,747,0,"press","Go",1,"neutral","GAL",22,"1","b.40",5
"823","EMPTY0216",3,2,1,4,3,2207,883,566,0,"press","noGo",0,"neutral","NGL",23,"1","b.40",5
"824","EMPTY0216",2,2,1,4,3,2145,849,0,0,"no_press","Go",0,"neutral","GW",24,"1","b.40",5
"825","EMPTY0216",1,2,1,4,3,2032,643,599,0,"press","Go",1,"neutral","GAL",25,"1","b.40",5
"826","EMPTY0216",3,2,1,4,3,1238,513,582,-1,"press","noGo",0,"lose","NGL",26,"1","b.40",6
"827","EMPTY0216",3,2,1,4,3,2164,632,0,0,"no_press","noGo",1,"neutral","NGL",27,"1","b.40",6
"828","EMPTY0216",1,2,1,4,3,2088,958,563,-1,"press","Go",1,"lose","GAL",28,"1","b.40",6
"829","EMPTY0216",3,2,1,4,3,1588,655,0,0,"no_press","noGo",1,"neutral","NGL",29,"1","b.40",6
"830","EMPTY0216",4,2,1,4,3,2224,669,731,0,"press","noGo",0,"neutral","NGW",30,"1","b.40",6
"831","EMPTY0216",1,2,1,4,3,2274,685,0,-1,"no_press","Go",0,"lose","GAL",31,"1","b.40",7
"832","EMPTY0216",1,2,1,4,3,2344,797,655,0,"press","Go",1,"neutral","GAL",32,"1","b.40",7
"833","EMPTY0216",3,2,1,4,3,2381,943,978,0,"press","noGo",0,"neutral","NGL",33,"1","b.40",7
"834","EMPTY0216",3,2,1,4,3,1678,828,742,-1,"press","noGo",0,"lose","NGL",34,"1","b.40",7
"835","EMPTY0216",2,2,1,4,3,2019,842,1271,0,"press","Go",1,"neutral","GW",35,"1","b.40",7
"836","EMPTY0216",4,2,1,4,3,2864,513,637,0,"press","noGo",0,"neutral","NGW",36,"1","b.40",8
"837","EMPTY0216",2,2,1,4,3,2388,947,640,1,"press","Go",1,"win","GW",37,"1","b.40",8
"838","EMPTY0216",2,2,1,4,3,2386,693,0,0,"no_press","Go",0,"neutral","GW",38,"1","b.40",8
"839","EMPTY0216",4,2,1,4,3,1592,587,918,0,"press","noGo",0,"neutral","NGW",39,"1","b.40",8
"840","EMPTY0216",4,2,1,4,3,1674,511,625,0,"press","noGo",0,"neutral","NGW",40,"1","b.40",8
"841","EMPTY0216",1,2,1,4,3,1746,768,616,0,"press","Go",1,"neutral","GAL",41,"1","c.60",9
"842","EMPTY0216",2,2,1,4,3,2887,733,959,1,"press","Go",1,"win","GW",42,"1","c.60",9
"843","EMPTY0216",4,2,1,4,3,2283,706,0,1,"no_press","noGo",1,"win","NGW",43,"1","c.60",9
"844","EMPTY0216",3,2,1,4,3,1267,779,767,-1,"press","noGo",0,"lose","NGL",44,"1","c.60",9
"845","EMPTY0216",3,2,1,4,3,2444,672,526,-1,"press","noGo",0,"lose","NGL",45,"1","c.60",9
"846","EMPTY0216",4,2,1,4,3,2266,557,1110,0,"press","noGo",0,"neutral","NGW",46,"1","c.60",10
"847","EMPTY0216",4,2,1,4,3,1779,894,664,0,"press","noGo",0,"neutral","NGW",47,"1","c.60",10
"848","EMPTY0216",3,2,1,4,3,2087,676,0,-1,"no_press","noGo",1,"lose","NGL",48,"1","c.60",10
"849","EMPTY0216",4,2,1,4,3,2008,826,786,0,"press","noGo",0,"neutral","NGW",49,"1","c.60",10
"850","EMPTY0216",3,2,1,4,3,1597,561,0,0,"no_press","noGo",1,"neutral","NGL",50,"1","c.60",10
"851","EMPTY0216",1,2,1,4,3,1807,737,791,0,"press","Go",1,"neutral","GAL",51,"1","c.60",11
"852","EMPTY0216",2,2,1,4,3,2490,811,1151,1,"press","Go",1,"win","GW",52,"1","c.60",11
"853","EMPTY0216",3,2,1,4,3,2072,827,0,-1,"no_press","noGo",1,"lose","NGL",53,"1","c.60",11
"854","EMPTY0216",4,2,1,4,3,1951,546,927,0,"press","noGo",0,"neutral","NGW",54,"1","c.60",11
"855","EMPTY0216",1,2,1,4,3,1936,526,710,0,"press","Go",1,"neutral","GAL",55,"1","c.60",11
"856","EMPTY0216",4,2,1,4,3,2380,866,547,1,"press","noGo",0,"win","NGW",56,"1","c.60",12
"857","EMPTY0216",3,2,1,4,3,1237,875,0,0,"no_press","noGo",1,"neutral","NGL",57,"1","c.60",12
"858","EMPTY0216",3,2,1,4,3,1495,859,0,0,"no_press","noGo",1,"neutral","NGL",58,"1","c.60",12
"859","EMPTY0216",4,2,1,4,3,2304,701,587,1,"press","noGo",0,"win","NGW",59,"1","c.60",12
"860","EMPTY0216",2,2,1,4,3,1965,699,990,1,"press","Go",1,"win","GW",60,"1","c.60",12
"861","EMPTY0216",1,2,1,4,3,2247,643,1106,0,"press","Go",1,"neutral","GAL",61,"1","d.80",13
"862","EMPTY0216",1,2,1,4,3,2402,833,0,0,"no_press","Go",0,"neutral","GAL",62,"1","d.80",13
"863","EMPTY0216",4,2,1,4,3,1318,863,693,0,"press","noGo",0,"neutral","NGW",63,"1","d.80",13
"864","EMPTY0216",2,2,1,4,3,1385,659,616,1,"press","Go",1,"win","GW",64,"1","d.80",13
"865","EMPTY0216",4,2,1,4,3,1461,986,0,1,"no_press","noGo",1,"win","NGW",65,"1","d.80",13
"866","EMPTY0216",4,2,1,4,3,2451,805,548,1,"press","noGo",0,"win","NGW",66,"1","d.80",14
"867","EMPTY0216",3,2,1,4,3,1864,598,0,0,"no_press","noGo",1,"neutral","NGL",67,"1","d.80",14
"868","EMPTY0216",2,2,1,4,3,2287,545,665,0,"press","Go",1,"neutral","GW",68,"1","d.80",14
"869","EMPTY0216",4,2,1,4,3,2129,606,827,0,"press","noGo",0,"neutral","NGW",69,"1","d.80",14
"870","EMPTY0216",2,2,1,4,3,1752,974,965,1,"press","Go",1,"win","GW",70,"1","d.80",14
"871","EMPTY0216",3,2,1,4,3,1759,949,531,-1,"press","noGo",0,"lose","NGL",71,"1","d.80",15
"872","EMPTY0216",4,2,1,4,3,2195,580,742,0,"press","noGo",0,"neutral","NGW",72,"1","d.80",15
"873","EMPTY0216",1,2,1,4,3,2285,686,655,0,"press","Go",1,"neutral","GAL",73,"1","d.80",15
"874","EMPTY0216",3,2,1,4,3,1494,596,686,-1,"press","noGo",0,"lose","NGL",74,"1","d.80",15
"875","EMPTY0216",4,2,1,4,3,3016,924,565,1,"press","noGo",0,"win","NGW",75,"1","d.80",15
"876","EMPTY0216",1,2,1,4,3,1552,644,0,-1,"no_press","Go",0,"lose","GAL",76,"1","d.80",16
"877","EMPTY0216",1,2,1,4,3,1743,538,541,0,"press","Go",1,"neutral","GAL",77,"1","d.80",16
"878","EMPTY0216",3,2,1,4,3,1191,554,1116,-1,"press","noGo",0,"lose","NGL",78,"1","d.80",16
"879","EMPTY0216",4,2,1,4,3,1784,580,608,1,"press","noGo",0,"win","NGW",79,"1","d.80",16
"880","EMPTY0216",3,2,1,4,3,1266,615,640,-1,"press","noGo",0,"lose","NGL",80,"1","d.80",16
"881","EMPTY0216",1,2,1,4,3,1433,617,0,-1,"no_press","Go",0,"lose","GAL",81,"1","e.100",17
"882","EMPTY0216",2,2,1,4,3,1598,876,416,1,"press","Go",1,"win","GW",82,"1","e.100",17
"883","EMPTY0216",3,2,1,4,3,2977,839,322,-1,"press","noGo",0,"lose","NGL",83,"1","e.100",17
"884","EMPTY0216",2,2,1,4,3,1503,503,511,1,"press","Go",1,"win","GW",84,"1","e.100",17
"885","EMPTY0216",3,2,1,4,3,1346,988,0,0,"no_press","noGo",1,"neutral","NGL",85,"1","e.100",17
"886","EMPTY0216",3,2,1,4,3,1504,981,1058,-1,"press","noGo",0,"lose","NGL",86,"1","e.100",18
"887","EMPTY0216",1,2,1,4,3,1445,546,790,0,"press","Go",1,"neutral","GAL",87,"1","e.100",18
"888","EMPTY0216",4,2,1,4,3,1467,841,727,0,"press","noGo",0,"neutral","NGW",88,"1","e.100",18
"889","EMPTY0216",2,2,1,4,3,1546,845,629,1,"press","Go",1,"win","GW",89,"1","e.100",18
"890","EMPTY0216",4,2,1,4,3,1842,598,490,0,"press","noGo",0,"neutral","NGW",90,"1","e.100",18
"891","EMPTY0216",4,2,1,4,3,1932,631,729,0,"press","noGo",0,"neutral","NGW",91,"1","e.100",19
"892","EMPTY0216",1,2,1,4,3,2228,843,806,-1,"press","Go",1,"lose","GAL",92,"1","e.100",19
"893","EMPTY0216",4,2,1,4,3,2493,722,562,0,"press","noGo",0,"neutral","NGW",93,"1","e.100",19
"894","EMPTY0216",2,2,1,4,3,2785,804,1159,1,"press","Go",1,"win","GW",94,"1","e.100",19
"895","EMPTY0216",1,2,1,4,3,3515,950,655,0,"press","Go",1,"neutral","GAL",95,"1","e.100",19
"896","EMPTY0216",1,2,1,4,3,3020,864,882,0,"press","Go",1,"neutral","GAL",96,"1","e.100",20
"897","EMPTY0216",2,2,1,4,3,2234,856,926,1,"press","Go",1,"win","GW",97,"1","e.100",20
"898","EMPTY0216",2,2,1,4,3,1166,536,473,1,"press","Go",1,"win","GW",98,"1","e.100",20
"899","EMPTY0216",4,2,1,4,3,1932,588,796,0,"press","noGo",0,"neutral","NGW",99,"1","e.100",20
"900","EMPTY0216",2,2,1,4,3,1795,529,441,1,"press","Go",1,"win","GW",100,"1","e.100",20
"901","EMPTY0216",6,6,7,8,5,1000,566,895,1,"press","Go",1,"win","GW",101,"2","a.20",21
"902","EMPTY0216",8,6,7,8,5,1613,574,0,1,"no_press","noGo",1,"win","NGW",102,"2","a.20",21
"903","EMPTY0216",8,6,7,8,5,2080,927,304,0,"press","noGo",0,"neutral","NGW",103,"2","a.20",21
"904","EMPTY0216",7,6,7,8,5,2538,927,0,-1,"no_press","Go",0,"lose","GAL",104,"2","a.20",21
"905","EMPTY0216",5,6,7,8,5,1693,878,1046,-1,"press","noGo",0,"lose","NGL",105,"2","a.20",21
"906","EMPTY0216",5,6,7,8,5,2306,635,0,-1,"no_press","noGo",1,"lose","NGL",106,"2","a.20",22
"907","EMPTY0216",8,6,7,8,5,1536,521,0,1,"no_press","noGo",1,"win","NGW",107,"2","a.20",22
"908","EMPTY0216",5,6,7,8,5,1246,544,0,0,"no_press","noGo",1,"neutral","NGL",108,"2","a.20",22
"909","EMPTY0216",5,6,7,8,5,2277,653,522,-1,"press","noGo",0,"lose","NGL",109,"2","a.20",22
"910","EMPTY0216",7,6,7,8,5,1275,993,1193,0,"press","Go",1,"neutral","GAL",110,"2","a.20",22
"911","EMPTY0216",5,6,7,8,5,2257,513,0,-1,"no_press","noGo",1,"lose","NGL",111,"2","a.20",23
"912","EMPTY0216",5,6,7,8,5,1509,800,0,0,"no_press","noGo",1,"neutral","NGL",112,"2","a.20",23
"913","EMPTY0216",6,6,7,8,5,1842,916,782,0,"press","Go",1,"neutral","GW",113,"2","a.20",23
"914","EMPTY0216",8,6,7,8,5,1000,794,0,1,"no_press","noGo",1,"win","NGW",114,"2","a.20",23
"915","EMPTY0216",6,6,7,8,5,2234,910,683,1,"press","Go",1,"win","GW",115,"2","a.20",23
"916","EMPTY0216",8,6,7,8,5,1329,963,0,1,"no_press","noGo",1,"win","NGW",116,"2","a.20",24
"917","EMPTY0216",5,6,7,8,5,2528,884,0,0,"no_press","noGo",1,"neutral","NGL",117,"2","a.20",24
"918","EMPTY0216",6,6,7,8,5,2074,641,917,1,"press","Go",1,"win","GW",118,"2","a.20",24
"919","EMPTY0216",8,6,7,8,5,1885,899,0,1,"no_press","noGo",1,"win","NGW",119,"2","a.20",24
"920","EMPTY0216",6,6,7,8,5,1885,968,588,1,"press","Go",1,"win","GW",120,"2","a.20",24
"921","EMPTY0216",5,6,7,8,5,1289,745,0,0,"no_press","noGo",1,"neutral","NGL",121,"2","b.40",25
"922","EMPTY0216",7,6,7,8,5,1554,916,1007,0,"press","Go",1,"neutral","GAL",122,"2","b.40",25
"923","EMPTY0216",6,6,7,8,5,2335,644,672,1,"press","Go",1,"win","GW",123,"2","b.40",25
"924","EMPTY0216",7,6,7,8,5,1491,710,730,0,"press","Go",1,"neutral","GAL",124,"2","b.40",25
"925","EMPTY0216",7,6,7,8,5,1885,701,611,0,"press","Go",1,"neutral","GAL",125,"2","b.40",25
"926","EMPTY0216",7,6,7,8,5,1825,602,512,-1,"press","Go",1,"lose","GAL",126,"2","b.40",26
"927","EMPTY0216",5,6,7,8,5,2818,592,0,0,"no_press","noGo",1,"neutral","NGL",127,"2","b.40",26
"928","EMPTY0216",7,6,7,8,5,1824,724,726,0,"press","Go",1,"neutral","GAL",128,"2","b.40",26
"929","EMPTY0216",6,6,7,8,5,1771,731,687,0,"press","Go",1,"neutral","GW",129,"2","b.40",26
"930","EMPTY0216",7,6,7,8,5,1368,841,1027,0,"press","Go",1,"neutral","GAL",130,"2","b.40",26
"931","EMPTY0216",7,6,7,8,5,2724,905,0,-1,"no_press","Go",0,"lose","GAL",131,"2","b.40",27
"932","EMPTY0216",8,6,7,8,5,1452,684,0,1,"no_press","noGo",1,"win","NGW",132,"2","b.40",27
"933","EMPTY0216",7,6,7,8,5,2464,864,913,0,"press","Go",1,"neutral","GAL",133,"2","b.40",27
"934","EMPTY0216",5,6,7,8,5,1773,929,0,0,"no_press","noGo",1,"neutral","NGL",134,"2","b.40",27
"935","EMPTY0216",5,6,7,8,5,2252,722,0,-1,"no_press","noGo",1,"lose","NGL",135,"2","b.40",27
"936","EMPTY0216",8,6,7,8,5,1861,712,1310,0,"press","noGo",0,"neutral","NGW",136,"2","b.40",28
"937","EMPTY0216",7,6,7,8,5,2041,942,671,-1,"press","Go",1,"lose","GAL",137,"2","b.40",28
"938","EMPTY0216",8,6,7,8,5,2034,753,540,0,"press","noGo",0,"neutral","NGW",138,"2","b.40",28
"939","EMPTY0216",5,6,7,8,5,2066,933,0,0,"no_press","noGo",1,"neutral","NGL",139,"2","b.40",28
"940","EMPTY0216",8,6,7,8,5,1537,864,724,0,"press","noGo",0,"neutral","NGW",140,"2","b.40",28
"941","EMPTY0216",6,6,7,8,5,1485,907,651,1,"press","Go",1,"win","GW",141,"2","c.60",29
"942","EMPTY0216",8,6,7,8,5,1338,721,708,1,"press","noGo",0,"win","NGW",142,"2","c.60",29
"943","EMPTY0216",6,6,7,8,5,2337,697,839,1,"press","Go",1,"win","GW",143,"2","c.60",29
"944","EMPTY0216",6,6,7,8,5,2615,984,935,1,"press","Go",1,"win","GW",144,"2","c.60",29
"945","EMPTY0216",8,6,7,8,5,1715,517,694,0,"press","noGo",0,"neutral","NGW",145,"2","c.60",29
"946","EMPTY0216",6,6,7,8,5,2745,829,619,1,"press","Go",1,"win","GW",146,"2","c.60",30
"947","EMPTY0216",8,6,7,8,5,2066,984,635,1,"press","noGo",0,"win","NGW",147,"2","c.60",30
"948","EMPTY0216",8,6,7,8,5,1671,705,0,1,"no_press","noGo",1,"win","NGW",148,"2","c.60",30
"949","EMPTY0216",8,6,7,8,5,2817,647,609,0,"press","noGo",0,"neutral","NGW",149,"2","c.60",30
"950","EMPTY0216",6,6,7,8,5,1511,924,598,1,"press","Go",1,"win","GW",150,"2","c.60",30
"951","EMPTY0216",7,6,7,8,5,2299,986,0,-1,"no_press","Go",0,"lose","GAL",151,"2","c.60",31
"952","EMPTY0216",5,6,7,8,5,1678,592,0,0,"no_press","noGo",1,"neutral","NGL",152,"2","c.60",31
"953","EMPTY0216",6,6,7,8,5,2129,630,643,1,"press","Go",1,"win","GW",153,"2","c.60",31
"954","EMPTY0216",5,6,7,8,5,1795,584,0,0,"no_press","noGo",1,"neutral","NGL",154,"2","c.60",31
"955","EMPTY0216",6,6,7,8,5,2930,560,477,0,"press","Go",1,"neutral","GW",155,"2","c.60",31
"956","EMPTY0216",7,6,7,8,5,1453,693,0,-1,"no_press","Go",0,"lose","GAL",156,"2","c.60",32
"957","EMPTY0216",5,6,7,8,5,2980,950,0,0,"no_press","noGo",1,"neutral","NGL",157,"2","c.60",32
"958","EMPTY0216",5,6,7,8,5,2206,808,430,0,"press","noGo",0,"neutral","NGL",158,"2","c.60",32
"959","EMPTY0216",5,6,7,8,5,1992,596,722,-1,"press","noGo",0,"lose","NGL",159,"2","c.60",32
"960","EMPTY0216",5,6,7,8,5,2524,874,0,-1,"no_press","noGo",1,"lose","NGL",160,"2","c.60",32
"961","EMPTY0216",7,6,7,8,5,1364,870,750,0,"press","Go",1,"neutral","GAL",161,"2","d.80",33
"962","EMPTY0216",8,6,7,8,5,1330,875,600,1,"press","noGo",0,"win","NGW",162,"2","d.80",33
"963","EMPTY0216",8,6,7,8,5,2615,884,659,0,"press","noGo",0,"neutral","NGW",163,"2","d.80",33
"964","EMPTY0216",5,6,7,8,5,2323,947,0,0,"no_press","noGo",1,"neutral","NGL",164,"2","d.80",33
"965","EMPTY0216",6,6,7,8,5,2650,905,513,1,"press","Go",1,"win","GW",165,"2","d.80",33
"966","EMPTY0216",6,6,7,8,5,1942,995,506,1,"press","Go",1,"win","GW",166,"2","d.80",34
"967","EMPTY0216",8,6,7,8,5,2836,932,914,1,"press","noGo",0,"win","NGW",167,"2","d.80",34
"968","EMPTY0216",8,6,7,8,5,1753,632,0,1,"no_press","noGo",1,"win","NGW",168,"2","d.80",34
"969","EMPTY0216",8,6,7,8,5,1505,811,820,1,"press","noGo",0,"win","NGW",169,"2","d.80",34
"970","EMPTY0216",8,6,7,8,5,1423,597,0,1,"no_press","noGo",1,"win","NGW",170,"2","d.80",34
"971","EMPTY0216",7,6,7,8,5,1729,955,497,0,"press","Go",1,"neutral","GAL",171,"2","d.80",35
"972","EMPTY0216",7,6,7,8,5,2588,980,974,0,"press","Go",1,"neutral","GAL",172,"2","d.80",35
"973","EMPTY0216",8,6,7,8,5,1990,619,375,0,"press","noGo",0,"neutral","NGW",173,"2","d.80",35
"974","EMPTY0216",7,6,7,8,5,3099,939,506,-1,"press","Go",1,"lose","GAL",174,"2","d.80",35
"975","EMPTY0216",5,6,7,8,5,2964,742,0,0,"no_press","noGo",1,"neutral","NGL",175,"2","d.80",35
"976","EMPTY0216",6,6,7,8,5,2018,871,588,1,"press","Go",1,"win","GW",176,"2","d.80",36
"977","EMPTY0216",7,6,7,8,5,1344,827,707,-1,"press","Go",1,"lose","GAL",177,"2","d.80",36
"978","EMPTY0216",8,6,7,8,5,1555,956,517,0,"press","noGo",0,"neutral","NGW",178,"2","d.80",36
"979","EMPTY0216",6,6,7,8,5,2579,705,684,0,"press","Go",1,"neutral","GW",179,"2","d.80",36
"980","EMPTY0216",5,6,7,8,5,1504,919,0,0,"no_press","noGo",1,"neutral","NGL",180,"2","d.80",36
"981","EMPTY0216",6,6,7,8,5,1848,818,842,1,"press","Go",1,"win","GW",181,"2","e.100",37
"982","EMPTY0216",6,6,7,8,5,1702,545,768,1,"press","Go",1,"win","GW",182,"2","e.100",37
"983","EMPTY0216",6,6,7,8,5,1204,947,746,1,"press","Go",1,"win","GW",183,"2","e.100",37
"984","EMPTY0216",5,6,7,8,5,1959,526,0,0,"no_press","noGo",1,"neutral","NGL",184,"2","e.100",37
"985","EMPTY0216",5,6,7,8,5,2336,533,385,-1,"press","noGo",0,"lose","NGL",185,"2","e.100",37
"986","EMPTY0216",7,6,7,8,5,2319,644,921,0,"press","Go",1,"neutral","GAL",186,"2","e.100",38
"987","EMPTY0216",7,6,7,8,5,2315,784,1522,-1,"press","Go",1,"lose","GAL",187,"2","e.100",38
"988","EMPTY0216",8,6,7,8,5,2218,740,642,0,"press","noGo",0,"neutral","NGW",188,"2","e.100",38
"989","EMPTY0216",7,6,7,8,5,2518,859,0,-1,"no_press","Go",0,"lose","GAL",189,"2","e.100",38
"990","EMPTY0216",6,6,7,8,5,1693,746,523,0,"press","Go",1,"neutral","GW",190,"2","e.100",38
"991","EMPTY0216",7,6,7,8,5,1942,768,715,0,"press","Go",1,"neutral","GAL",191,"2","e.100",39
"992","EMPTY0216",7,6,7,8,5,2330,990,599,0,"press","Go",1,"neutral","GAL",192,"2","e.100",39
"993","EMPTY0216",6,6,7,8,5,2125,672,751,1,"press","Go",1,"win","GW",193,"2","e.100",39
"994","EMPTY0216",5,6,7,8,5,2359,649,0,0,"no_press","noGo",1,"neutral","NGL",194,"2","e.100",39
"995","EMPTY0216",7,6,7,8,5,1785,804,1193,0,"press","Go",1,"neutral","GAL",195,"2","e.100",39
"996","EMPTY0216",7,6,7,8,5,2942,640,557,0,"press","Go",1,"neutral","GAL",196,"2","e.100",40
"997","EMPTY0216",8,6,7,8,5,2257,886,604,0,"press","noGo",0,"neutral","NGW",197,"2","e.100",40
"998","EMPTY0216",6,6,7,8,5,2700,774,1060,1,"press","Go",1,"win","GW",198,"2","e.100",40
"999","EMPTY0216",6,6,7,8,5,2237,968,614,1,"press","Go",1,"win","GW",199,"2","e.100",40
"1000","EMPTY0216",5,6,7,8,5,1000,680,0,0,"no_press","noGo",1,"neutral","NGL",200,"2","e.100",40
"1001","EMPTY0216",9,12,11,10,9,2298,628,1194,-1,"press","noGo",0,"lose","NGL",201,"3","a.20",41
"1002","EMPTY0216",9,12,11,10,9,1196,641,0,0,"no_press","noGo",1,"neutral","NGL",202,"3","a.20",41
"1003","EMPTY0216",11,12,11,10,9,2239,712,913,0,"press","Go",1,"neutral","GAL",203,"3","a.20",41
"1004","EMPTY0216",9,12,11,10,9,1288,783,0,0,"no_press","noGo",1,"neutral","NGL",204,"3","a.20",41
"1005","EMPTY0216",10,12,11,10,9,1289,558,885,0,"press","noGo",0,"neutral","NGW",205,"3","a.20",41
"1006","EMPTY0216",10,12,11,10,9,1847,705,0,0,"no_press","noGo",1,"neutral","NGW",206,"3","a.20",42
"1007","EMPTY0216",11,12,11,10,9,1938,910,779,0,"press","Go",1,"neutral","GAL",207,"3","a.20",42
"1008","EMPTY0216",12,12,11,10,9,2000,632,628,1,"press","Go",1,"win","GW",208,"3","a.20",42
"1009","EMPTY0216",11,12,11,10,9,1509,872,781,-1,"press","Go",1,"lose","GAL",209,"3","a.20",42
"1010","EMPTY0216",12,12,11,10,9,2169,828,664,1,"press","Go",1,"win","GW",210,"3","a.20",42
"1011","EMPTY0216",12,12,11,10,9,2019,760,690,0,"press","Go",1,"neutral","GW",211,"3","a.20",43
"1012","EMPTY0216",9,12,11,10,9,1847,871,0,0,"no_press","noGo",1,"neutral","NGL",212,"3","a.20",43
"1013","EMPTY0216",11,12,11,10,9,1630,988,478,-1,"press","Go",1,"lose","GAL",213,"3","a.20",43
"1014","EMPTY0216",9,12,11,10,9,2140,875,0,0,"no_press","noGo",1,"neutral","NGL",214,"3","a.20",43
"1015","EMPTY0216",10,12,11,10,9,1187,736,723,0,"press","noGo",0,"neutral","NGW",215,"3","a.20",43
"1016","EMPTY0216",10,12,11,10,9,1547,735,448,0,"press","noGo",0,"neutral","NGW",216,"3","a.20",44
"1017","EMPTY0216",11,12,11,10,9,2776,771,671,0,"press","Go",1,"neutral","GAL",217,"3","a.20",44
"1018","EMPTY0216",10,12,11,10,9,1666,514,0,0,"no_press","noGo",1,"neutral","NGW",218,"3","a.20",44
"1019","EMPTY0216",11,12,11,10,9,1922,545,0,-1,"no_press","Go",0,"lose","GAL",219,"3","a.20",44
"1020","EMPTY0216",9,12,11,10,9,2085,598,0,0,"no_press","noGo",1,"neutral","NGL",220,"3","a.20",44
"1021","EMPTY0216",12,12,11,10,9,1954,634,608,1,"press","Go",1,"win","GW",221,"3","b.40",45
"1022","EMPTY0216",10,12,11,10,9,1229,580,942,0,"press","noGo",0,"neutral","NGW",222,"3","b.40",45
"1023","EMPTY0216",12,12,11,10,9,1250,828,523,0,"press","Go",1,"neutral","GW",223,"3","b.40",45
"1024","EMPTY0216",12,12,11,10,9,1715,504,706,1,"press","Go",1,"win","GW",224,"3","b.40",45
"1025","EMPTY0216",10,12,11,10,9,2853,626,467,0,"press","noGo",0,"neutral","NGW",225,"3","b.40",45
"1026","EMPTY0216",9,12,11,10,9,2360,903,0,0,"no_press","noGo",1,"neutral","NGL",226,"3","b.40",46
"1027","EMPTY0216",11,12,11,10,9,2291,548,832,0,"press","Go",1,"neutral","GAL",227,"3","b.40",46
"1028","EMPTY0216",10,12,11,10,9,1479,752,578,0,"press","noGo",0,"neutral","NGW",228,"3","b.40",46
"1029","EMPTY0216",11,12,11,10,9,1787,943,614,-1,"press","Go",1,"lose","GAL",229,"3","b.40",46
"1030","EMPTY0216",12,12,11,10,9,1189,949,877,1,"press","Go",1,"win","GW",230,"3","b.40",46
"1031","EMPTY0216",11,12,11,10,9,1990,961,0,-1,"no_press","Go",0,"lose","GAL",231,"3","b.40",47
"1032","EMPTY0216",10,12,11,10,9,2478,558,626,1,"press","noGo",0,"win","NGW",232,"3","b.40",47
"1033","EMPTY0216",12,12,11,10,9,2664,852,540,1,"press","Go",1,"win","GW",233,"3","b.40",47
"1034","EMPTY0216",12,12,11,10,9,5000,724,538,0,"press","Go",1,"neutral","GW",234,"3","b.40",47
"1035","EMPTY0216",12,12,11,10,9,1655,734,545,1,"press","Go",1,"win","GW",235,"3","b.40",47
"1036","EMPTY0216",9,12,11,10,9,2057,756,0,0,"no_press","noGo",1,"neutral","NGL",236,"3","b.40",48
"1037","EMPTY0216",9,12,11,10,9,2540,980,0,-1,"no_press","noGo",1,"lose","NGL",237,"3","b.40",48
"1038","EMPTY0216",9,12,11,10,9,1964,735,0,0,"no_press","noGo",1,"neutral","NGL",238,"3","b.40",48
"1039","EMPTY0216",9,12,11,10,9,1939,653,0,0,"no_press","noGo",1,"neutral","NGL",239,"3","b.40",48
"1040","EMPTY0216",12,12,11,10,9,2038,941,1444,1,"press","Go",1,"win","GW",240,"3","b.40",48
"1041","EMPTY0216",12,12,11,10,9,2745,815,744,1,"press","Go",1,"win","GW",241,"3","c.60",49
"1042","EMPTY0216",12,12,11,10,9,1678,743,936,1,"press","Go",1,"win","GW",242,"3","c.60",49
"1043","EMPTY0216",10,12,11,10,9,1000,822,1048,0,"press","noGo",0,"neutral","NGW",243,"3","c.60",49
"1044","EMPTY0216",11,12,11,10,9,2166,604,0,-1,"no_press","Go",0,"lose","GAL",244,"3","c.60",49
"1045","EMPTY0216",9,12,11,10,9,2084,706,0,0,"no_press","noGo",1,"neutral","NGL",245,"3","c.60",49
"1046","EMPTY0216",10,12,11,10,9,2272,776,0,1,"no_press","noGo",1,"win","NGW",246,"3","c.60",50
"1047","EMPTY0216",9,12,11,10,9,1444,977,0,-1,"no_press","noGo",1,"lose","NGL",247,"3","c.60",50
"1048","EMPTY0216",12,12,11,10,9,2209,654,524,1,"press","Go",1,"win","GW",248,"3","c.60",50
"1049","EMPTY0216",10,12,11,10,9,2026,675,596,0,"press","noGo",0,"neutral","NGW",249,"3","c.60",50
"1050","EMPTY0216",11,12,11,10,9,3412,773,670,0,"press","Go",1,"neutral","GAL",250,"3","c.60",50
"1051","EMPTY0216",9,12,11,10,9,1772,768,0,-1,"no_press","noGo",1,"lose","NGL",251,"3","c.60",51
"1052","EMPTY0216",9,12,11,10,9,2855,637,509,-1,"press","noGo",0,"lose","NGL",252,"3","c.60",51
"1053","EMPTY0216",12,12,11,10,9,3344,766,1349,1,"press","Go",1,"win","GW",253,"3","c.60",51
"1054","EMPTY0216",11,12,11,10,9,1965,644,766,0,"press","Go",1,"neutral","GAL",254,"3","c.60",51
"1055","EMPTY0216",12,12,11,10,9,1562,574,579,1,"press","Go",1,"win","GW",255,"3","c.60",51
"1056","EMPTY0216",11,12,11,10,9,1869,613,0,-1,"no_press","Go",0,"lose","GAL",256,"3","c.60",52
"1057","EMPTY0216",10,12,11,10,9,1511,807,1305,0,"press","noGo",0,"neutral","NGW",257,"3","c.60",52
"1058","EMPTY0216",11,12,11,10,9,1889,999,0,-1,"no_press","Go",0,"lose","GAL",258,"3","c.60",52
"1059","EMPTY0216",9,12,11,10,9,2464,814,0,0,"no_press","noGo",1,"neutral","NGL",259,"3","c.60",52
"1060","EMPTY0216",9,12,11,10,9,1888,581,607,0,"press","noGo",0,"neutral","NGL",260,"3","c.60",52
"1061","EMPTY0216",11,12,11,10,9,1608,775,0,-1,"no_press","Go",0,"lose","GAL",261,"3","d.80",53
"1062","EMPTY0216",10,12,11,10,9,2318,897,650,0,"press","noGo",0,"neutral","NGW",262,"3","d.80",53
"1063","EMPTY0216",10,12,11,10,9,1206,796,0,1,"no_press","noGo",1,"win","NGW",263,"3","d.80",53
"1064","EMPTY0216",11,12,11,10,9,2254,968,522,0,"press","Go",1,"neutral","GAL",264,"3","d.80",53
"1065","EMPTY0216",10,12,11,10,9,2103,505,1292,1,"press","noGo",0,"win","NGW",265,"3","d.80",53
"1066","EMPTY0216",10,12,11,10,9,2303,579,0,1,"no_press","noGo",1,"win","NGW",266,"3","d.80",54
