"","...1","ID","stim_ID","GW","GAL","NGW","NGL","jitter1","jitter2","RT","outcomefeed","condition","session","response","GoResponse","Cue","req_action","correct","trial_number","block","TrialCount","feedback","OutValence","salient","followup_beha","correct_feedback","followup_response","next_action","next_action_binary"
"1",3,"AAAA0432",1,4,1,2,3,2628,920,771,0,"a.sham",3,"press",1,"GAL","Go",1,3,1,1,"neutral","Avoid",NA,"press",1,"press",NA,NA
"2",4,"AAAA0432",1,4,1,2,3,2136,865,996,0,"a.sham",3,"press",1,"GAL","Go",1,4,1,2,"neutral","Avoid",NA,"no_press",1,"no_press","no_press",0
"3",8,"AAAA0432",1,4,1,2,3,2047,707,0,-1,"a.sham",3,"no_press",0,"GAL","Go",0,8,1,3,"lose","Avoid","lose","no_press",1,"no_press","no_press",0
"4",15,"AAAA0432",1,4,1,2,3,2428,751,0,-1,"a.sham",3,"no_press",0,"GAL","Go",0,15,1,4,"lose","Avoid","lose","no_press",1,"no_press","no_press",0
"5",19,"AAAA0432",1,4,1,2,3,1745,687,0,-1,"a.sham",3,"no_press",0,"GAL","Go",0,19,1,5,"lose","Avoid","lose","press",1,"press","press",1
"6",24,"AAAA0432",1,4,1,2,3,1783,895,791,0,"a.sham",3,"press",1,"GAL","Go",1,24,1,6,"neutral","Avoid",NA,"press",1,"press","press",1
"7",25,"AAAA0432",1,4,1,2,3,1180,789,1426,0,"a.sham",3,"press",1,"GAL","Go",1,25,1,7,"neutral","Avoid",NA,"press",1,"press","press",1
"8",36,"AAAA0432",1,4,1,2,3,1617,747,849,0,"a.sham",3,"press",1,"GAL","Go",1,36,1,8,"neutral","Avoid",NA,"press",1,"press","press",1
"9",43,"AAAA0432",1,4,1,2,3,1832,958,566,0,"a.sham",3,"press",1,"GAL","Go",1,43,1,9,"neutral","Avoid",NA,"press",1,"press","press",1
"10",53,"AAAA0432",1,4,1,2,3,5000,916,663,0,"a.sham",3,"press",1,"GAL","Go",1,53,1,10,"neutral","Avoid",NA,"press",1,"press","press",1
"11",54,"AAAA0432",1,4,1,2,3,1617,554,433,-1,"a.sham",3,"press",1,"GAL","Go",1,54,1,11,"lose","Avoid","lose","press",0,NA,"press",1
"12",55,"AAAA0432",1,4,1,2,3,1815,930,412,0,"a.sham",3,"press",1,"GAL","Go",1,55,1,12,"neutral","Avoid",NA,"press",1,"press","press",1
"13",56,"AAAA0432",1,4,1,2,3,2300,838,452,-1,"a.sham",3,"press",1,"GAL","Go",1,56,1,13,"lose","Avoid","lose","press",0,NA,"press",1
"14",59,"AAAA0432",1,4,1,2,3,2235,513,575,0,"a.sham",3,"press",1,"GAL","Go",1,59,1,14,"neutral","Avoid",NA,"press",1,"press","press",1
"15",62,"AAAA0432",1,4,1,2,3,1000,555,738,0,"a.sham",3,"press",1,"GAL","Go",1,62,1,15,"neutral","Avoid",NA,"press",1,"press","press",1
"16",68,"AAAA0432",1,4,1,2,3,1486,575,572,-1,"a.sham",3,"press",1,"GAL","Go",1,68,1,16,"lose","Avoid","lose","press",0,NA,"press",1
"17",70,"AAAA0432",1,4,1,2,3,1260,536,483,0,"a.sham",3,"press",1,"GAL","Go",1,70,1,17,"neutral","Avoid",NA,"press",1,"press","press",1
"18",72,"AAAA0432",1,4,1,2,3,1573,630,580,0,"a.sham",3,"press",1,"GAL","Go",1,72,1,18,"neutral","Avoid",NA,"press",1,"press","press",1
"19",74,"AAAA0432",1,4,1,2,3,1916,892,629,0,"a.sham",3,"press",1,"GAL","Go",1,74,1,19,"neutral","Avoid",NA,"press",1,"press","press",1
"20",76,"AAAA0432",1,4,1,2,3,2964,511,618,0,"a.sham",3,"press",1,"GAL","Go",1,76,1,20,"neutral","Avoid",NA,"no_press",1,"no_press",NA,NA
"21",83,"AAAA0432",7,6,7,8,5,2100,565,0,-1,"a.sham",3,"no_press",0,"GAL","Go",0,83,2,1,"lose","Avoid","lose","press",1,"press","press",1
"22",89,"AAAA0432",7,6,7,8,5,1933,967,1067,-1,"a.sham",3,"press",1,"GAL","Go",1,89,2,2,"lose","Avoid","lose","no_press",0,NA,"no_press",0
"23",90,"AAAA0432",7,6,7,8,5,1182,803,0,-1,"a.sham",3,"no_press",0,"GAL","Go",0,90,2,3,"lose","Avoid","lose","press",1,"press","press",1
"24",91,"AAAA0432",7,6,7,8,5,1876,954,507,0,"a.sham",3,"press",1,"GAL","Go",1,91,2,4,"neutral","Avoid",NA,"press",1,"press","press",1
"25",97,"AAAA0432",7,6,7,8,5,2198,989,1010,0,"a.sham",3,"press",1,"GAL","Go",1,97,2,5,"neutral","Avoid",NA,"press",1,"press","press",1
"26",101,"AAAA0432",7,6,7,8,5,1638,962,748,0,"a.sham",3,"press",1,"GAL","Go",1,101,2,6,"neutral","Avoid",NA,"press",1,"press","press",1
"27",102,"AAAA0432",7,6,7,8,5,1259,905,610,0,"a.sham",3,"press",1,"GAL","Go",1,102,2,7,"neutral","Avoid",NA,"press",1,"press","press",1
"28",107,"AAAA0432",7,6,7,8,5,1657,949,683,-1,"a.sham",3,"press",1,"GAL","Go",1,107,2,8,"lose","Avoid","lose","press",0,NA,"press",1
"29",108,"AAAA0432",7,6,7,8,5,1584,946,529,0,"a.sham",3,"press",1,"GAL","Go",1,108,2,9,"neutral","Avoid",NA,"press",1,"press","press",1
"30",110,"AAAA0432",7,6,7,8,5,1000,622,797,0,"a.sham",3,"press",1,"GAL","Go",1,110,2,10,"neutral","Avoid",NA,"press",1,"press","press",1
"31",123,"AAAA0432",7,6,7,8,5,2134,627,664,-1,"a.sham",3,"press",1,"GAL","Go",1,123,2,11,"lose","Avoid","lose","press",0,NA,"press",1
"32",132,"AAAA0432",7,6,7,8,5,3256,810,695,0,"a.sham",3,"press",1,"GAL","Go",1,132,2,12,"neutral","Avoid",NA,"press",1,"press","press",1
"33",136,"AAAA0432",7,6,7,8,5,2502,799,452,0,"a.sham",3,"press",1,"GAL","Go",1,136,2,13,"neutral","Avoid",NA,"press",1,"press","press",1
"34",137,"AAAA0432",7,6,7,8,5,1183,918,566,0,"a.sham",3,"press",1,"GAL","Go",1,137,2,14,"neutral","Avoid",NA,"press",1,"press","press",1
"35",138,"AAAA0432",7,6,7,8,5,3021,616,438,0,"a.sham",3,"press",1,"GAL","Go",1,138,2,15,"neutral","Avoid",NA,"press",1,"press","press",1
"36",141,"AAAA0432",7,6,7,8,5,1211,805,564,0,"a.sham",3,"press",1,"GAL","Go",1,141,2,16,"neutral","Avoid",NA,"press",1,"press","press",1
"37",143,"AAAA0432",7,6,7,8,5,1491,892,487,0,"a.sham",3,"press",1,"GAL","Go",1,143,2,17,"neutral","Avoid",NA,"press",1,"press","press",1
"38",145,"AAAA0432",7,6,7,8,5,2498,771,675,0,"a.sham",3,"press",1,"GAL","Go",1,145,2,18,"neutral","Avoid",NA,"press",1,"press","press",1
"39",147,"AAAA0432",7,6,7,8,5,1951,939,611,-1,"a.sham",3,"press",1,"GAL","Go",1,147,2,19,"lose","Avoid","lose","press",0,NA,"press",1
"40",153,"AAAA0432",7,6,7,8,5,1433,653,520,0,"a.sham",3,"press",1,"GAL","Go",1,153,2,20,"neutral","Avoid",NA,"press",1,"press",NA,NA
"41",161,"AAAA0432",11,10,11,12,9,2023,684,495,0,"a.sham",3,"press",1,"GAL","Go",1,161,3,1,"neutral","Avoid",NA,"press",1,"press","press",1
"42",166,"AAAA0432",11,10,11,12,9,2816,666,720,0,"a.sham",3,"press",1,"GAL","Go",1,166,3,2,"neutral","Avoid",NA,"press",1,"press","press",1
"43",167,"AAAA0432",11,10,11,12,9,1826,645,592,-1,"a.sham",3,"press",1,"GAL","Go",1,167,3,3,"lose","Avoid","lose","press",0,NA,"press",1
"44",170,"AAAA0432",11,10,11,12,9,1735,626,540,-1,"a.sham",3,"press",1,"GAL","Go",1,170,3,4,"lose","Avoid","lose","no_press",0,NA,"no_press",0
"45",171,"AAAA0432",11,10,11,12,9,1540,969,0,-1,"a.sham",3,"no_press",0,"GAL","Go",0,171,3,5,"lose","Avoid","lose","press",1,"press","press",1
"46",173,"AAAA0432",11,10,11,12,9,1485,973,1107,0,"a.sham",3,"press",1,"GAL","Go",1,173,3,6,"neutral","Avoid",NA,"press",1,"press","press",1
"47",176,"AAAA0432",11,10,11,12,9,2129,996,754,0,"a.sham",3,"press",1,"GAL","Go",1,176,3,7,"neutral","Avoid",NA,"press",1,"press","press",1
"48",183,"AAAA0432",11,10,11,12,9,1494,694,650,0,"a.sham",3,"press",1,"GAL","Go",1,183,3,8,"neutral","Avoid",NA,"press",1,"press","press",1
"49",186,"AAAA0432",11,10,11,12,9,1000,904,513,0,"a.sham",3,"press",1,"GAL","Go",1,186,3,9,"neutral","Avoid",NA,"press",1,"press","press",1
"50",193,"AAAA0432",11,10,11,12,9,2084,837,575,0,"a.sham",3,"press",1,"GAL","Go",1,193,3,10,"neutral","Avoid",NA,"press",1,"press","press",1
"51",198,"AAAA0432",11,10,11,12,9,2209,859,578,0,"a.sham",3,"press",1,"GAL","Go",1,198,3,11,"neutral","Avoid",NA,"press",1,"press","press",1
"52",203,"AAAA0432",11,10,11,12,9,1643,974,508,0,"a.sham",3,"press",1,"GAL","Go",1,203,3,12,"neutral","Avoid",NA,"press",1,"press","press",1
"53",208,"AAAA0432",11,10,11,12,9,2200,999,555,0,"a.sham",3,"press",1,"GAL","Go",1,208,3,13,"neutral","Avoid",NA,"press",1,"press","press",1
"54",209,"AAAA0432",11,10,11,12,9,2075,617,492,-1,"a.sham",3,"press",1,"GAL","Go",1,209,3,14,"lose","Avoid","lose","press",0,NA,"press",1
"55",210,"AAAA0432",11,10,11,12,9,2550,835,547,0,"a.sham",3,"press",1,"GAL","Go",1,210,3,15,"neutral","Avoid",NA,"press",1,"press","press",1
"56",218,"AAAA0432",11,10,11,12,9,1835,720,598,-1,"a.sham",3,"press",1,"GAL","Go",1,218,3,16,"lose","Avoid","lose","press",0,NA,"press",1
"57",220,"AAAA0432",11,10,11,12,9,1448,719,629,0,"a.sham",3,"press",1,"GAL","Go",1,220,3,17,"neutral","Avoid",NA,"press",1,"press","press",1
"58",224,"AAAA0432",11,10,11,12,9,1827,616,535,0,"a.sham",3,"press",1,"GAL","Go",1,224,3,18,"neutral","Avoid",NA,"press",1,"press","press",1
"59",227,"AAAA0432",11,10,11,12,9,2508,897,529,0,"a.sham",3,"press",1,"GAL","Go",1,227,3,19,"neutral","Avoid",NA,"press",1,"press","press",1
"60",236,"AAAA0432",11,10,11,12,9,1418,639,496,0,"a.sham",3,"press",1,"GAL","Go",1,236,3,20,"neutral","Avoid",NA,"press",1,"press",NA,NA
"61",242,"AAAA0432",15,16,15,14,13,1989,513,739,0,"a.sham",3,"press",1,"GAL","Go",1,242,4,1,"neutral","Avoid",NA,"press",1,"press","press",1
"62",243,"AAAA0432",15,16,15,14,13,1510,846,1010,-1,"a.sham",3,"press",1,"GAL","Go",1,243,4,2,"lose","Avoid","lose","press",0,NA,"press",1
"63",245,"AAAA0432",15,16,15,14,13,1447,801,930,0,"a.sham",3,"press",1,"GAL","Go",1,245,4,3,"neutral","Avoid",NA,"press",1,"press","press",1
"64",251,"AAAA0432",15,16,15,14,13,1482,543,578,0,"a.sham",3,"press",1,"GAL","Go",1,251,4,4,"neutral","Avoid",NA,"press",1,"press","press",1
"65",261,"AAAA0432",15,16,15,14,13,2000,733,462,0,"a.sham",3,"press",1,"GAL","Go",1,261,4,5,"neutral","Avoid",NA,"press",1,"press","press",1
"66",263,"AAAA0432",15,16,15,14,13,2031,624,585,-1,"a.sham",3,"press",1,"GAL","Go",1,263,4,6,"lose","Avoid","lose","press",0,NA,"press",1
"67",267,"AAAA0432",15,16,15,14,13,2096,658,455,0,"a.sham",3,"press",1,"GAL","Go",1,267,4,7,"neutral","Avoid",NA,"press",1,"press","press",1
"68",276,"AAAA0432",15,16,15,14,13,2606,534,536,0,"a.sham",3,"press",1,"GAL","Go",1,276,4,8,"neutral","Avoid",NA,"press",1,"press","press",1
"69",279,"AAAA0432",15,16,15,14,13,1202,957,565,0,"a.sham",3,"press",1,"GAL","Go",1,279,4,9,"neutral","Avoid",NA,"press",1,"press","press",1
"70",285,"AAAA0432",15,16,15,14,13,1712,658,541,0,"a.sham",3,"press",1,"GAL","Go",1,285,4,10,"neutral","Avoid",NA,"press",1,"press","press",1
"71",294,"AAAA0432",15,16,15,14,13,2434,808,513,0,"a.sham",3,"press",1,"GAL","Go",1,294,4,11,"neutral","Avoid",NA,"press",1,"press","press",1
"72",296,"AAAA0432",15,16,15,14,13,2328,514,514,0,"a.sham",3,"press",1,"GAL","Go",1,296,4,12,"neutral","Avoid",NA,"press",1,"press","press",1
"73",298,"AAAA0432",15,16,15,14,13,2493,777,506,-1,"a.sham",3,"press",1,"GAL","Go",1,298,4,13,"lose","Avoid","lose","press",0,NA,"press",1
"74",299,"AAAA0432",15,16,15,14,13,2687,545,458,0,"a.sham",3,"press",1,"GAL","Go",1,299,4,14,"neutral","Avoid",NA,"press",1,"press","press",1
"75",300,"AAAA0432",15,16,15,14,13,2336,940,463,0,"a.sham",3,"press",1,"GAL","Go",1,300,4,15,"neutral","Avoid",NA,"press",1,"press","press",1
"76",306,"AAAA0432",15,16,15,14,13,2253,773,532,-1,"a.sham",3,"press",1,"GAL","Go",1,306,4,16,"lose","Avoid","lose","press",0,NA,"press",1
"77",307,"AAAA0432",15,16,15,14,13,2518,793,550,0,"a.sham",3,"press",1,"GAL","Go",1,307,4,17,"neutral","Avoid",NA,"press",1,"press","press",1
"78",312,"AAAA0432",15,16,15,14,13,2164,658,546,0,"a.sham",3,"press",1,"GAL","Go",1,312,4,18,"neutral","Avoid",NA,"press",1,"press","press",1
"79",314,"AAAA0432",15,16,15,14,13,2314,611,608,0,"a.sham",3,"press",1,"GAL","Go",1,314,4,19,"neutral","Avoid",NA,"press",1,"press","press",1
"80",315,"AAAA0432",15,16,15,14,13,2144,638,510,0,"a.sham",3,"press",1,"GAL","Go",1,315,4,20,"neutral","Avoid",NA,NA,1,NA,NA,NA
"81",322,"BNVN0020",1,4,1,2,3,1824,777,549,0,"a.sham",1,"press",1,"GAL","Go",1,2,1,1,"neutral","Avoid",NA,"press",1,"press","press",1
"82",325,"BNVN0020",1,4,1,2,3,2503,673,615,0,"a.sham",1,"press",1,"GAL","Go",1,5,1,2,"neutral","Avoid",NA,"press",1,"press","press",1
"83",326,"BNVN0020",1,4,1,2,3,2272,697,559,0,"a.sham",1,"press",1,"GAL","Go",1,6,1,3,"neutral","Avoid",NA,"press",1,"press","press",1
"84",327,"BNVN0020",1,4,1,2,3,1795,991,512,0,"a.sham",1,"press",1,"GAL","Go",1,7,1,4,"neutral","Avoid",NA,"press",1,"press","press",1
"85",328,"BNVN0020",1,4,1,2,3,1000,545,601,0,"a.sham",1,"press",1,"GAL","Go",1,8,1,5,"neutral","Avoid",NA,"no_press",1,"no_press","no_press",0
"86",329,"BNVN0020",1,4,1,2,3,2404,683,0,0,"a.sham",1,"no_press",0,"GAL","Go",0,9,1,6,"neutral","Avoid",NA,"press",0,NA,"press",1
"87",331,"BNVN0020",1,4,1,2,3,2538,934,707,0,"a.sham",1,"press",1,"GAL","Go",1,11,1,7,"neutral","Avoid",NA,"press",1,"press","press",1
"88",334,"BNVN0020",1,4,1,2,3,2184,602,1103,0,"a.sham",1,"press",1,"GAL","Go",1,14,1,8,"neutral","Avoid",NA,"no_press",1,"no_press","no_press",0
"89",338,"BNVN0020",1,4,1,2,3,1338,918,0,0,"a.sham",1,"no_press",0,"GAL","Go",0,18,1,9,"neutral","Avoid",NA,"press",0,NA,"press",1
"90",340,"BNVN0020",1,4,1,2,3,1795,875,681,0,"a.sham",1,"press",1,"GAL","Go",1,20,1,10,"neutral","Avoid",NA,"press",1,"press","press",1
"91",344,"BNVN0020",1,4,1,2,3,1407,672,1220,0,"a.sham",1,"press",1,"GAL","Go",1,24,1,11,"neutral","Avoid",NA,"press",1,"press","press",1
"92",348,"BNVN0020",1,4,1,2,3,1166,953,1495,0,"a.sham",1,"press",1,"GAL","Go",1,28,1,12,"neutral","Avoid",NA,"press",1,"press","press",1
"93",359,"BNVN0020",1,4,1,2,3,2822,656,431,0,"a.sham",1,"press",1,"GAL","Go",1,39,1,13,"neutral","Avoid",NA,"no_press",1,"no_press","no_press",0
"94",366,"BNVN0020",1,4,1,2,3,1463,905,0,-1,"a.sham",1,"no_press",0,"GAL","Go",0,46,1,14,"lose","Avoid","lose","no_press",1,"no_press","no_press",0
"95",373,"BNVN0020",1,4,1,2,3,1511,531,0,-1,"a.sham",1,"no_press",0,"GAL","Go",0,53,1,15,"lose","Avoid","lose","press",1,"press","press",1
"96",374,"BNVN0020",1,4,1,2,3,2266,783,910,-1,"a.sham",1,"press",1,"GAL","Go",1,54,1,16,"lose","Avoid","lose","no_press",0,NA,"no_press",0
"97",383,"BNVN0020",1,4,1,2,3,1861,577,0,-1,"a.sham",1,"no_press",0,"GAL","Go",0,63,1,17,"lose","Avoid","lose","press",1,"press","press",1
"98",385,"BNVN0020",1,4,1,2,3,2493,788,468,0,"a.sham",1,"press",1,"GAL","Go",1,65,1,18,"neutral","Avoid",NA,"press",1,"press","press",1
"99",391,"BNVN0020",1,4,1,2,3,1992,526,544,0,"a.sham",1,"press",1,"GAL","Go",1,71,1,19,"neutral","Avoid",NA,"press",1,"press","press",1
"100",394,"BNVN0020",1,4,1,2,3,2087,623,734,0,"a.sham",1,"press",1,"GAL","Go",1,74,1,20,"neutral","Avoid",NA,"press",1,"press",NA,NA
"101",405,"BNVN0020",7,6,7,8,5,2252,511,1067,0,"a.sham",1,"press",1,"GAL","Go",1,85,2,1,"neutral","Avoid",NA,"press",1,"press","press",1
"102",406,"BNVN0020",7,6,7,8,5,1495,528,776,0,"a.sham",1,"press",1,"GAL","Go",1,86,2,2,"neutral","Avoid",NA,"no_press",1,"no_press","no_press",0
"103",418,"BNVN0020",7,6,7,8,5,1936,808,0,-1,"a.sham",1,"no_press",0,"GAL","Go",0,98,2,3,"lose","Avoid","lose","press",1,"press","press",1
"104",421,"BNVN0020",7,6,7,8,5,1250,984,690,-1,"a.sham",1,"press",1,"GAL","Go",1,101,2,4,"lose","Avoid","lose","no_press",0,NA,"no_press",0
"105",422,"BNVN0020",7,6,7,8,5,2510,706,0,-1,"a.sham",1,"no_press",0,"GAL","Go",0,102,2,5,"lose","Avoid","lose","press",1,"press","press",1
"106",426,"BNVN0020",7,6,7,8,5,1655,934,942,0,"a.sham",1,"press",1,"GAL","Go",1,106,2,6,"neutral","Avoid",NA,"press",1,"press","press",1
"107",438,"BNVN0020",7,6,7,8,5,2388,633,1003,0,"a.sham",1,"press",1,"GAL","Go",1,118,2,7,"neutral","Avoid",NA,"no_press",1,"no_press","no_press",0
"108",439,"BNVN0020",7,6,7,8,5,1552,570,0,0,"a.sham",1,"no_press",0,"GAL","Go",0,119,2,8,"neutral","Avoid",NA,"press",0,NA,"press",1
"109",441,"BNVN0020",7,6,7,8,5,2299,900,740,0,"a.sham",1,"press",1,"GAL","Go",1,121,2,9,"neutral","Avoid",NA,"press",1,"press","press",1
"110",443,"BNVN0020",7,6,7,8,5,1000,941,710,0,"a.sham",1,"press",1,"GAL","Go",1,123,2,10,"neutral","Avoid",NA,"no_press",1,"no_press","no_press",0
"111",446,"BNVN0020",7,6,7,8,5,2251,629,0,-1,"a.sham",1,"no_press",0,"GAL","Go",0,126,2,11,"lose","Avoid","lose","press",1,"press","press",1
"112",447,"BNVN0020",7,6,7,8,5,2206,543,691,0,"a.sham",1,"press",1,"GAL","Go",1,127,2,12,"neutral","Avoid",NA,"press",1,"press","press",1
"113",449,"BNVN0020",7,6,7,8,5,2817,605,801,-1,"a.sham",1,"press",1,"GAL","Go",1,129,2,13,"lose","Avoid","lose","no_press",0,NA,"no_press",0
"114",453,"BNVN0020",7,6,7,8,5,2218,670,0,-1,"a.sham",1,"no_press",0,"GAL","Go",0,133,2,14,"lose","Avoid","lose","press",1,"press","press",1
"115",454,"BNVN0020",7,6,7,8,5,1678,557,674,0,"a.sham",1,"press",1,"GAL","Go",1,134,2,15,"neutral","Avoid",NA,"press",1,"press","press",1
"116",455,"BNVN0020",7,6,7,8,5,2907,951,1010,0,"a.sham",1,"press",1,"GAL","Go",1,135,2,16,"neutral","Avoid",NA,"no_press",1,"no_press","no_press",0
"117",458,"BNVN0020",7,6,7,8,5,1445,795,0,-1,"a.sham",1,"no_press",0,"GAL","Go",0,138,2,17,"lose","Avoid","lose","press",1,"press","press",1
"118",465,"BNVN0020",7,6,7,8,5,1133,743,728,0,"a.sham",1,"press",1,"GAL","Go",1,145,2,18,"neutral","Avoid",NA,"press",1,"press","press",1
"119",471,"BNVN0020",7,6,7,8,5,1948,675,999,-1,"a.sham",1,"press",1,"GAL","Go",1,151,2,19,"lose","Avoid","lose","press",0,NA,"press",1
"120",478,"BNVN0020",7,6,7,8,5,1922,770,693,0,"a.sham",1,"press",1,"GAL","Go",1,158,2,20,"neutral","Avoid",NA,"press",1,"press",NA,NA
"121",484,"BNVN0020",11,10,11,12,9,1703,725,893,-1,"a.sham",1,"press",1,"GAL","Go",1,164,3,1,"lose","Avoid","lose","no_press",0,NA,"no_press",0
"122",486,"BNVN0020",11,10,11,12,9,1746,671,0,0,"a.sham",1,"no_press",0,"GAL","Go",0,166,3,2,"neutral","Avoid",NA,"no_press",0,NA,"no_press",0
"123",487,"BNVN0020",11,10,11,12,9,1187,886,0,-1,"a.sham",1,"no_press",0,"GAL","Go",0,167,3,3,"lose","Avoid","lose","no_press",1,"no_press","no_press",0
"124",494,"BNVN0020",11,10,11,12,9,2122,730,0,0,"a.sham",1,"no_press",0,"GAL","Go",0,174,3,4,"neutral","Avoid",NA,"no_press",0,NA,"no_press",0
"125",496,"BNVN0020",11,10,11,12,9,2719,894,0,-1,"a.sham",1,"no_press",0,"GAL","Go",0,176,3,5,"lose","Avoid","lose","press",1,"press","press",1
"126",498,"BNVN0020",11,10,11,12,9,1788,811,1422,0,"a.sham",1,"press",1,"GAL","Go",1,178,3,6,"neutral","Avoid",NA,"no_press",1,"no_press","no_press",0
"127",500,"BNVN0020",11,10,11,12,9,1807,881,0,-1,"a.sham",1,"no_press",0,"GAL","Go",0,180,3,7,"lose","Avoid","lose","press",1,"press","press",1
"128",503,"BNVN0020",11,10,11,12,9,2451,933,1156,-1,"a.sham",1,"press",1,"GAL","Go",1,183,3,8,"lose","Avoid","lose","no_press",0,NA,"no_press",0
"129",510,"BNVN0020",11,10,11,12,9,2337,933,0,-1,"a.sham",1,"no_press",0,"GAL","Go",0,190,3,9,"lose","Avoid","lose","press",1,"press","press",1
"130",516,"BNVN0020",11,10,11,12,9,1721,909,857,0,"a.sham",1,"press",1,"GAL","Go",1,196,3,10,"neutral","Avoid",NA,"press",1,"press","press",1
"131",517,"BNVN0020",11,10,11,12,9,1249,820,831,0,"a.sham",1,"press",1,"GAL","Go",1,197,3,11,"neutral","Avoid",NA,"press",1,"press","press",1
"132",519,"BNVN0020",11,10,11,12,9,1967,562,936,0,"a.sham",1,"press",1,"GAL","Go",1,199,3,12,"neutral","Avoid",NA,"press",1,"press","press",1
"133",521,"BNVN0020",11,10,11,12,9,1888,901,705,0,"a.sham",1,"press",1,"GAL","Go",1,201,3,13,"neutral","Avoid",NA,"press",1,"press","press",1
"134",528,"BNVN0020",11,10,11,12,9,3158,508,852,0,"a.sham",1,"press",1,"GAL","Go",1,208,3,14,"neutral","Avoid",NA,"press",1,"press","press",1
"135",544,"BNVN0020",11,10,11,12,9,2107,974,952,0,"a.sham",1,"press",1,"GAL","Go",1,224,3,15,"neutral","Avoid",NA,"press",1,"press","press",1
"136",551,"BNVN0020",11,10,11,12,9,2818,587,932,0,"a.sham",1,"press",1,"GAL","Go",1,231,3,16,"neutral","Avoid",NA,"press",1,"press","press",1
"137",556,"BNVN0020",11,10,11,12,9,1785,928,965,0,"a.sham",1,"press",1,"GAL","Go",1,236,3,17,"neutral","Avoid",NA,"press",1,"press","press",1
"138",557,"BNVN0020",11,10,11,12,9,1596,596,1056,0,"a.sham",1,"press",1,"GAL","Go",1,237,3,18,"neutral","Avoid",NA,"press",1,"press","press",1
"139",559,"BNVN0020",11,10,11,12,9,2125,750,1099,0,"a.sham",1,"press",1,"GAL","Go",1,239,3,19,"neutral","Avoid",NA,"press",1,"press","press",1
"140",560,"BNVN0020",11,10,11,12,9,1588,656,582,0,"a.sham",1,"press",1,"GAL","Go",1,240,3,20,"neutral","Avoid",NA,"no_press",1,"no_press",NA,NA
"141",567,"BNVN0020",13,16,13,14,15,1990,805,0,-1,"a.sham",1,"no_press",0,"GAL","Go",0,247,4,1,"lose","Avoid","lose","press",1,"press","press",1
"142",569,"BNVN0020",13,16,13,14,15,2873,820,760,0,"a.sham",1,"press",1,"GAL","Go",1,249,4,2,"neutral","Avoid",NA,"no_press",1,"no_press","no_press",0
"143",571,"BNVN0020",13,16,13,14,15,1822,631,0,0,"a.sham",1,"no_press",0,"GAL","Go",0,251,4,3,"neutral","Avoid",NA,"no_press",0,NA,"no_press",0
"144",580,"BNVN0020",13,16,13,14,15,1630,660,0,-1,"a.sham",1,"no_press",0,"GAL","Go",0,260,4,4,"lose","Avoid","lose","no_press",1,"no_press","no_press",0
"145",582,"BNVN0020",13,16,13,14,15,2018,955,0,-1,"a.sham",1,"no_press",0,"GAL","Go",0,262,4,5,"lose","Avoid","lose","press",1,"press","press",1
"146",584,"BNVN0020",13,16,13,14,15,3099,550,999,0,"a.sham",1,"press",1,"GAL","Go",1,264,4,6,"neutral","Avoid",NA,"press",1,"press","press",1
"147",585,"BNVN0020",13,16,13,14,15,1825,598,536,-1,"a.sham",1,"press",1,"GAL","Go",1,265,4,7,"lose","Avoid","lose","no_press",0,NA,"no_press",0
"148",594,"BNVN0020",13,16,13,14,15,2139,811,0,-1,"a.sham",1,"no_press",0,"GAL","Go",0,274,4,8,"lose","Avoid","lose","press",1,"press","press",1
"149",607,"BNVN0020",13,16,13,14,15,1885,578,854,0,"a.sham",1,"press",1,"GAL","Go",1,287,4,9,"neutral","Avoid",NA,"no_press",1,"no_press","no_press",0
"150",610,"BNVN0020",13,16,13,14,15,1206,575,0,-1,"a.sham",1,"no_press",0,"GAL","Go",0,290,4,10,"lose","Avoid","lose","press",1,"press","press",1
"151",618,"BNVN0020",13,16,13,14,15,1964,670,970,0,"a.sham",1,"press",1,"GAL","Go",1,298,4,11,"neutral","Avoid",NA,"press",1,"press","press",1
"152",619,"BNVN0020",13,16,13,14,15,2041,703,774,0,"a.sham",1,"press",1,"GAL","Go",1,299,4,12,"neutral","Avoid",NA,"press",1,"press","press",1
"153",620,"BNVN0020",13,16,13,14,15,1953,531,898,-1,"a.sham",1,"press",1,"GAL","Go",1,300,4,13,"lose","Avoid","lose","press",0,NA,"press",1
"154",621,"BNVN0020",13,16,13,14,15,2026,836,634,0,"a.sham",1,"press",1,"GAL","Go",1,301,4,14,"neutral","Avoid",NA,"press",1,"press","press",1
"155",623,"BNVN0020",13,16,13,14,15,1189,981,682,0,"a.sham",1,"press",1,"GAL","Go",1,303,4,15,"neutral","Avoid",NA,"press",1,"press","press",1
"156",625,"BNVN0020",13,16,13,14,15,1000,573,899,0,"a.sham",1,"press",1,"GAL","Go",1,305,4,16,"neutral","Avoid",NA,"press",1,"press","press",1
"157",626,"BNVN0020",13,16,13,14,15,2448,766,649,0,"a.sham",1,"press",1,"GAL","Go",1,306,4,17,"neutral","Avoid",NA,"press",1,"press","press",1
"158",630,"BNVN0020",13,16,13,14,15,2977,616,789,0,"a.sham",1,"press",1,"GAL","Go",1,310,4,18,"neutral","Avoid",NA,"press",1,"press","press",1
"159",634,"BNVN0020",13,16,13,14,15,1634,911,1346,0,"a.sham",1,"press",1,"GAL","Go",1,314,4,19,"neutral","Avoid",NA,"press",1,"press","press",1
"160",636,"BNVN0020",13,16,13,14,15,2372,947,1375,0,"a.sham",1,"press",1,"GAL","Go",1,316,4,20,"neutral","Avoid",NA,NA,1,NA,NA,NA
"161",642,"DIVL0216",3,2,3,4,1,1755,536,0,-1,"a.sham",3,"no_press",0,"GAL","Go",0,2,1,1,"lose","Avoid","lose","press",1,"press","press",1
"162",643,"DIVL0216",3,2,3,4,1,2674,572,315,-1,"a.sham",3,"press",1,"GAL","Go",1,3,1,2,"lose","Avoid","lose","press",0,NA,"press",1
"163",648,"DIVL0216",3,2,3,4,1,2508,893,440,-1,"a.sham",3,"press",1,"GAL","Go",1,8,1,3,"lose","Avoid","lose","press",0,NA,"press",1
"164",653,"DIVL0216",3,2,3,4,1,1477,581,434,0,"a.sham",3,"press",1,"GAL","Go",1,13,1,4,"neutral","Avoid",NA,"no_press",1,"no_press","no_press",0
"165",655,"DIVL0216",3,2,3,4,1,2103,658,0,-1,"a.sham",3,"no_press",0,"GAL","Go",0,15,1,5,"lose","Avoid","lose","press",1,"press","press",1
"166",659,"DIVL0216",3,2,3,4,1,1840,599,554,0,"a.sham",3,"press",1,"GAL","Go",1,19,1,6,"neutral","Avoid",NA,"press",1,"press","press",1
"167",663,"DIVL0216",3,2,3,4,1,1653,733,593,0,"a.sham",3,"press",1,"GAL","Go",1,23,1,7,"neutral","Avoid",NA,"press",1,"press","press",1
"168",667,"DIVL0216",3,2,3,4,1,1486,504,362,0,"a.sham",3,"press",1,"GAL","Go",1,27,1,8,"neutral","Avoid",NA,"press",1,"press","press",1
"169",668,"DIVL0216",3,2,3,4,1,2439,985,388,-1,"a.sham",3,"press",1,"GAL","Go",1,28,1,9,"lose","Avoid","lose","press",0,NA,"press",1
"170",674,"DIVL0216",3,2,3,4,1,1577,706,508,0,"a.sham",3,"press",1,"GAL","Go",1,34,1,10,"neutral","Avoid",NA,"press",1,"press","press",1
"171",681,"DIVL0216",3,2,3,4,1,2116,851,517,0,"a.sham",3,"press",1,"GAL","Go",1,41,1,11,"neutral","Avoid",NA,"press",1,"press","press",1
"172",682,"DIVL0216",3,2,3,4,1,3042,934,533,0,"a.sham",3,"press",1,"GAL","Go",1,42,1,12,"neutral","Avoid",NA,"press",1,"press","press",1
"173",685,"DIVL0216",3,2,3,4,1,2023,1000,363,0,"a.sham",3,"press",1,"GAL","Go",1,45,1,13,"neutral","Avoid",NA,"press",1,"press","press",1
"174",686,"DIVL0216",3,2,3,4,1,1254,742,390,-1,"a.sham",3,"press",1,"GAL","Go",1,46,1,14,"lose","Avoid","lose","press",0,NA,"press",1
"175",689,"DIVL0216",3,2,3,4,1,1752,524,497,0,"a.sham",3,"press",1,"GAL","Go",1,49,1,15,"neutral","Avoid",NA,"press",1,"press","press",1
"176",691,"DIVL0216",3,2,3,4,1,2200,960,426,0,"a.sham",3,"press",1,"GAL","Go",1,51,1,16,"neutral","Avoid",NA,"press",1,"press","press",1
"177",702,"DIVL0216",3,2,3,4,1,1765,772,575,0,"a.sham",3,"press",1,"GAL","Go",1,62,1,17,"neutral","Avoid",NA,"press",1,"press","press",1
"178",708,"DIVL0216",3,2,3,4,1,2502,705,544,0,"a.sham",3,"press",1,"GAL","Go",1,68,1,18,"neutral","Avoid",NA,"press",1,"press","press",1
"179",709,"DIVL0216",3,2,3,4,1,1468,937,493,0,"a.sham",3,"press",1,"GAL","Go",1,69,1,19,"neutral","Avoid",NA,"press",1,"press","press",1
"180",716,"DIVL0216",3,2,3,4,1,1827,699,477,0,"a.sham",3,"press",1,"GAL","Go",1,76,1,20,"neutral","Avoid",NA,"press",1,"press",NA,NA
"181",725,"DIVL0216",7,6,7,8,5,1491,960,509,-1,"a.sham",3,"press",1,"GAL","Go",1,85,2,1,"lose","Avoid","lose","no_press",0,NA,"no_press",0
"182",726,"DIVL0216",7,6,7,8,5,2188,654,0,-1,"a.sham",3,"no_press",0,"GAL","Go",0,86,2,2,"lose","Avoid","lose","press",1,"press","press",1
"183",728,"DIVL0216",7,6,7,8,5,2712,723,537,0,"a.sham",3,"press",1,"GAL","Go",1,88,2,3,"neutral","Avoid",NA,"no_press",1,"no_press","no_press",0
"184",729,"DIVL0216",7,6,7,8,5,3823,727,0,-1,"a.sham",3,"no_press",0,"GAL","Go",0,89,2,4,"lose","Avoid","lose","press",1,"press","press",1
"185",732,"DIVL0216",7,6,7,8,5,1735,827,615,0,"a.sham",3,"press",1,"GAL","Go",1,92,2,5,"neutral","Avoid",NA,"press",1,"press","press",1
"186",733,"DIVL0216",7,6,7,8,5,1826,538,534,0,"a.sham",3,"press",1,"GAL","Go",1,93,2,6,"neutral","Avoid",NA,"press",1,"press","press",1
"187",739,"DIVL0216",7,6,7,8,5,1000,941,420,0,"a.sham",3,"press",1,"GAL","Go",1,99,2,7,"neutral","Avoid",NA,"press",1,"press","press",1
"188",740,"DIVL0216",7,6,7,8,5,1652,894,434,0,"a.sham",3,"press",1,"GAL","Go",1,100,2,8,"neutral","Avoid",NA,"press",1,"press","press",1
"189",744,"DIVL0216",7,6,7,8,5,2512,864,541,0,"a.sham",3,"press",1,"GAL","Go",1,104,2,9,"neutral","Avoid",NA,"press",1,"press","press",1
"190",747,"DIVL0216",7,6,7,8,5,1744,991,490,0,"a.sham",3,"press",1,"GAL","Go",1,107,2,10,"neutral","Avoid",NA,"press",1,"press","press",1
"191",752,"DIVL0216",7,6,7,8,5,1929,746,462,0,"a.sham",3,"press",1,"GAL","Go",1,112,2,11,"neutral","Avoid",NA,"press",1,"press","press",1
"192",756,"DIVL0216",7,6,7,8,5,2137,834,457,-1,"a.sham",3,"press",1,"GAL","Go",1,116,2,12,"lose","Avoid","lose","press",0,NA,"press",1
"193",758,"DIVL0216",7,6,7,8,5,1867,632,393,-1,"a.sham",3,"press",1,"GAL","Go",1,118,2,13,"lose","Avoid","lose","press",0,NA,"press",1
"194",760,"DIVL0216",7,6,7,8,5,2035,698,410,0,"a.sham",3,"press",1,"GAL","Go",1,120,2,14,"neutral","Avoid",NA,"press",1,"press","press",1
"195",763,"DIVL0216",7,6,7,8,5,1487,748,489,0,"a.sham",3,"press",1,"GAL","Go",1,123,2,15,"neutral","Avoid",NA,"press",1,"press","press",1
"196",765,"DIVL0216",7,6,7,8,5,2969,961,473,0,"a.sham",3,"press",1,"GAL","Go",1,125,2,16,"neutral","Avoid",NA,"press",1,"press","press",1
"197",768,"DIVL0216",7,6,7,8,5,2044,600,468,0,"a.sham",3,"press",1,"GAL","Go",1,128,2,17,"neutral","Avoid",NA,"press",1,"press","press",1
"198",784,"DIVL0216",7,6,7,8,5,1633,645,547,0,"a.sham",3,"press",1,"GAL","Go",1,144,2,18,"neutral","Avoid",NA,"press",1,"press","press",1
"199",794,"DIVL0216",7,6,7,8,5,2446,753,490,0,"a.sham",3,"press",1,"GAL","Go",1,154,2,19,"neutral","Avoid",NA,"press",1,"press","press",1
"200",799,"DIVL0216",7,6,7,8,5,1815,535,449,-1,"a.sham",3,"press",1,"GAL","Go",1,159,2,20,"lose","Avoid","lose","press",0,NA,NA,NA
"201",803,"DIVL0216",11,12,11,10,9,1791,982,519,0,"a.sham",3,"press",1,"GAL","Go",1,163,3,1,"neutral","Avoid",NA,"no_press",1,"no_press","no_press",0
"202",807,"DIVL0216",11,12,11,10,9,1982,568,0,-1,"a.sham",3,"no_press",0,"GAL","Go",0,167,3,2,"lose","Avoid","lose","press",1,"press","press",1
"203",812,"DIVL0216",11,12,11,10,9,1923,916,459,0,"a.sham",3,"press",1,"GAL","Go",1,172,3,3,"neutral","Avoid",NA,"no_press",1,"no_press","no_press",0
"204",819,"DIVL0216",11,12,11,10,9,3444,600,0,0,"a.sham",3,"no_press",0,"GAL","Go",0,179,3,4,"neutral","Avoid",NA,"no_press",0,NA,"no_press",0
"205",831,"DIVL0216",11,12,11,10,9,2737,762,0,-1,"a.sham",3,"no_press",0,"GAL","Go",0,191,3,5,"lose","Avoid","lose","press",1,"press","press",1
"206",832,"DIVL0216",11,12,11,10,9,1306,776,540,-1,"a.sham",3,"press",1,"GAL","Go",1,192,3,6,"lose","Avoid","lose","press",0,NA,"press",1
"207",833,"DIVL0216",11,12,11,10,9,1629,873,426,0,"a.sham",3,"press",1,"GAL","Go",1,193,3,7,"neutral","Avoid",NA,"press",1,"press","press",1
"208",835,"DIVL0216",11,12,11,10,9,1180,908,525,0,"a.sham",3,"press",1,"GAL","Go",1,195,3,8,"neutral","Avoid",NA,"press",1,"press","press",1
"209",838,"DIVL0216",11,12,11,10,9,2493,634,522,-1,"a.sham",3,"press",1,"GAL","Go",1,198,3,9,"lose","Avoid","lose","press",0,NA,"press",1
"210",842,"DIVL0216",11,12,11,10,9,1522,587,469,-1,"a.sham",3,"press",1,"GAL","Go",1,202,3,10,"lose","Avoid","lose","press",0,NA,"press",1
"211",845,"DIVL0216",11,12,11,10,9,1260,744,438,0,"a.sham",3,"press",1,"GAL","Go",1,205,3,11,"neutral","Avoid",NA,"press",1,"press","press",1
"212",847,"DIVL0216",11,12,11,10,9,2093,614,460,0,"a.sham",3,"press",1,"GAL","Go",1,207,3,12,"neutral","Avoid",NA,"press",1,"press","press",1
"213",848,"DIVL0216",11,12,11,10,9,1772,900,575,0,"a.sham",3,"press",1,"GAL","Go",1,208,3,13,"neutral","Avoid",NA,"press",1,"press","press",1
"214",850,"DIVL0216",11,12,11,10,9,1265,790,354,0,"a.sham",3,"press",1,"GAL","Go",1,210,3,14,"neutral","Avoid",NA,"press",1,"press","press",1
"215",853,"DIVL0216",11,12,11,10,9,2559,936,431,0,"a.sham",3,"press",1,"GAL","Go",1,213,3,15,"neutral","Avoid",NA,"press",1,"press","press",1
"216",859,"DIVL0216",11,12,11,10,9,2923,970,425,0,"a.sham",3,"press",1,"GAL","Go",1,219,3,16,"neutral","Avoid",NA,"press",1,"press","press",1
"217",861,"DIVL0216",11,12,11,10,9,1835,770,378,0,"a.sham",3,"press",1,"GAL","Go",1,221,3,17,"neutral","Avoid",NA,"press",1,"press","press",1
"218",866,"DIVL0216",11,12,11,10,9,1819,824,455,0,"a.sham",3,"press",1,"GAL","Go",1,226,3,18,"neutral","Avoid",NA,"press",1,"press","press",1
"219",870,"DIVL0216",11,12,11,10,9,2343,526,463,0,"a.sham",3,"press",1,"GAL","Go",1,230,3,19,"neutral","Avoid",NA,"press",1,"press","press",1
"220",875,"DIVL0216",11,12,11,10,9,2022,531,364,0,"a.sham",3,"press",1,"GAL","Go",1,235,3,20,"neutral","Avoid",NA,"press",1,"press",NA,NA
"221",885,"DIVL0216",13,14,13,16,15,2174,582,630,0,"a.sham",3,"press",1,"GAL","Go",1,245,4,1,"neutral","Avoid",NA,"no_press",1,"no_press","no_press",0
"222",890,"DIVL0216",13,14,13,16,15,1668,620,0,-1,"a.sham",3,"no_press",0,"GAL","Go",0,250,4,2,"lose","Avoid","lose","press",1,"press","press",1
"223",891,"DIVL0216",13,14,13,16,15,2241,762,372,0,"a.sham",3,"press",1,"GAL","Go",1,251,4,3,"neutral","Avoid",NA,"press",1,"press","press",1
"224",893,"DIVL0216",13,14,13,16,15,2602,953,538,0,"a.sham",3,"press",1,"GAL","Go",1,253,4,4,"neutral","Avoid",NA,"press",1,"press","press",1
"225",908,"DIVL0216",13,14,13,16,15,2178,962,540,0,"a.sham",3,"press",1,"GAL","Go",1,268,4,5,"neutral","Avoid",NA,"press",1,"press","press",1
"226",912,"DIVL0216",13,14,13,16,15,1722,875,465,0,"a.sham",3,"press",1,"GAL","Go",1,272,4,6,"neutral","Avoid",NA,"press",1,"press","press",1
"227",916,"DIVL0216",13,14,13,16,15,2100,513,624,0,"a.sham",3,"press",1,"GAL","Go",1,276,4,7,"neutral","Avoid",NA,"press",1,"press","press",1
"228",919,"DIVL0216",13,14,13,16,15,2305,559,479,0,"a.sham",3,"press",1,"GAL","Go",1,279,4,8,"neutral","Avoid",NA,"press",1,"press","press",1
"229",925,"DIVL0216",13,14,13,16,15,1510,920,535,-1,"a.sham",3,"press",1,"GAL","Go",1,285,4,9,"lose","Avoid","lose","press",0,NA,"press",1
"230",926,"DIVL0216",13,14,13,16,15,2047,904,466,0,"a.sham",3,"press",1,"GAL","Go",1,286,4,10,"neutral","Avoid",NA,"press",1,"press","press",1
"231",927,"DIVL0216",13,14,13,16,15,3021,503,397,-1,"a.sham",3,"press",1,"GAL","Go",1,287,4,11,"lose","Avoid","lose","press",0,NA,"press",1
"232",929,"DIVL0216",13,14,13,16,15,1658,554,342,0,"a.sham",3,"press",1,"GAL","Go",1,289,4,12,"neutral","Avoid",NA,"press",1,"press","press",1
"233",933,"DIVL0216",13,14,13,16,15,1951,861,496,0,"a.sham",3,"press",1,"GAL","Go",1,293,4,13,"neutral","Avoid",NA,"press",1,"press","press",1
"234",940,"DIVL0216",13,14,13,16,15,1916,873,539,0,"a.sham",3,"press",1,"GAL","Go",1,300,4,14,"neutral","Avoid",NA,"press",1,"press","press",1
"235",944,"DIVL0216",13,14,13,16,15,1852,714,681,0,"a.sham",3,"press",1,"GAL","Go",1,304,4,15,"neutral","Avoid",NA,"press",1,"press","press",1
"236",945,"DIVL0216",13,14,13,16,15,2973,614,432,-1,"a.sham",3,"press",1,"GAL","Go",1,305,4,16,"lose","Avoid","lose","press",0,NA,"press",1
"237",948,"DIVL0216",13,14,13,16,15,1548,827,438,0,"a.sham",3,"press",1,"GAL","Go",1,308,4,17,"neutral","Avoid",NA,"press",1,"press","press",1
"238",950,"DIVL0216",13,14,13,16,15,1946,528,508,0,"a.sham",3,"press",1,"GAL","Go",1,310,4,18,"neutral","Avoid",NA,"press",1,"press","press",1
"239",955,"DIVL0216",13,14,13,16,15,2393,773,443,0,"a.sham",3,"press",1,"GAL","Go",1,315,4,19,"neutral","Avoid",NA,"press",1,"press","press",1
"240",956,"DIVL0216",13,14,13,16,15,2410,646,419,0,"a.sham",3,"press",1,"GAL","Go",1,316,4,20,"neutral","Avoid",NA,NA,1,NA,NA,NA
"241",962,"DNHR0900",3,4,3,2,1,1600,514,839,0,"a.sham",2,"press",1,"GAL","Go",1,2,1,1,"neutral","Avoid",NA,"press",1,"press","press",1
"242",964,"DNHR0900",3,4,3,2,1,1582,735,626,0,"a.sham",2,"press",1,"GAL","Go",1,4,1,2,"neutral","Avoid",NA,"press",1,"press","press",1
"243",972,"DNHR0900",3,4,3,2,1,2058,678,818,0,"a.sham",2,"press",1,"GAL","Go",1,12,1,3,"neutral","Avoid",NA,"press",1,"press","press",1
"244",974,"DNHR0900",3,4,3,2,1,2147,1000,714,0,"a.sham",2,"press",1,"GAL","Go",1,14,1,4,"neutral","Avoid",NA,"press",1,"press","press",1
"245",975,"DNHR0900",3,4,3,2,1,2209,980,508,-1,"a.sham",2,"press",1,"GAL","Go",1,15,1,5,"lose","Avoid","lose","no_press",0,NA,"no_press",0
"246",979,"DNHR0900",3,4,3,2,1,2289,695,0,-1,"a.sham",2,"no_press",0,"GAL","Go",0,19,1,6,"lose","Avoid","lose","press",1,"press","press",1
"247",980,"DNHR0900",3,4,3,2,1,2151,910,497,0,"a.sham",2,"press",1,"GAL","Go",1,20,1,7,"neutral","Avoid",NA,"press",1,"press","press",1
"248",981,"DNHR0900",3,4,3,2,1,1614,675,548,0,"a.sham",2,"press",1,"GAL","Go",1,21,1,8,"neutral","Avoid",NA,"press",1,"press","press",1
"249",986,"DNHR0900",3,4,3,2,1,2592,954,660,0,"a.sham",2,"press",1,"GAL","Go",1,26,1,9,"neutral","Avoid",NA,"press",1,"press","press",1
"250",988,"DNHR0900",3,4,3,2,1,1666,658,729,0,"a.sham",2,"press",1,"GAL","Go",1,28,1,10,"neutral","Avoid",NA,"press",1,"press","press",1
"251",989,"DNHR0900",3,4,3,2,1,2266,716,561,0,"a.sham",2,"press",1,"GAL","Go",1,29,1,11,"neutral","Avoid",NA,"press",1,"press","press",1
"252",992,"DNHR0900",3,4,3,2,1,2572,859,548,-1,"a.sham",2,"press",1,"GAL","Go",1,32,1,12,"lose","Avoid","lose","press",0,NA,"press",1
"253",994,"DNHR0900",3,4,3,2,1,1669,919,740,0,"a.sham",2,"press",1,"GAL","Go",1,34,1,13,"neutral","Avoid",NA,"press",1,"press","press",1
"254",1004,"DNHR0900",3,4,3,2,1,2053,752,777,0,"a.sham",2,"press",1,"GAL","Go",1,44,1,14,"neutral","Avoid",NA,"press",1,"press","press",1
"255",1012,"DNHR0900",3,4,3,2,1,2547,796,707,0,"a.sham",2,"press",1,"GAL","Go",1,52,1,15,"neutral","Avoid",NA,"press",1,"press","press",1
"256",1020,"DNHR0900",3,4,3,2,1,2222,682,396,-1,"a.sham",2,"press",1,"GAL","Go",1,60,1,16,"lose","Avoid","lose","press",0,NA,"press",1
"257",1034,"DNHR0900",3,4,3,2,1,1792,600,665,-1,"a.sham",2,"press",1,"GAL","Go",1,74,1,17,"lose","Avoid","lose","no_press",0,NA,"no_press",0
"258",1036,"DNHR0900",3,4,3,2,1,2709,948,0,-1,"a.sham",2,"no_press",0,"GAL","Go",0,76,1,18,"lose","Avoid","lose","press",1,"press","press",1
"259",1037,"DNHR0900",3,4,3,2,1,2818,601,467,0,"a.sham",2,"press",1,"GAL","Go",1,77,1,19,"neutral","Avoid",NA,"press",1,"press","press",1
"260",1040,"DNHR0900",3,4,3,2,1,2014,737,1130,0,"a.sham",2,"press",1,"GAL","Go",1,80,1,20,"neutral","Avoid",NA,"press",1,"press",NA,NA
"261",1047,"DNHR0900",7,6,7,8,5,1300,871,836,0,"a.sham",2,"press",1,"GAL","Go",1,87,2,1,"neutral","Avoid",NA,"press",1,"press","press",1
"262",1048,"DNHR0900",7,6,7,8,5,2107,614,783,0,"a.sham",2,"press",1,"GAL","Go",1,88,2,2,"neutral","Avoid",NA,"press",1,"press","press",1
"263",1053,"DNHR0900",7,6,7,8,5,2435,885,927,-1,"a.sham",2,"press",1,"GAL","Go",1,93,2,3,"lose","Avoid","lose","no_press",0,NA,"no_press",0
"264",1057,"DNHR0900",7,6,7,8,5,1503,719,0,-1,"a.sham",2,"no_press",0,"GAL","Go",0,97,2,4,"lose","Avoid","lose","press",1,"press","press",1
"265",1058,"DNHR0900",7,6,7,8,5,2564,616,566,-1,"a.sham",2,"press",1,"GAL","Go",1,98,2,5,"lose","Avoid","lose","press",0,NA,"press",1
"266",1060,"DNHR0900",7,6,7,8,5,2255,614,875,-1,"a.sham",2,"press",1,"GAL","Go",1,100,2,6,"lose","Avoid","lose","no_press",0,NA,"no_press",0
"267",1066,"DNHR0900",7,6,7,8,5,1880,970,0,-1,"a.sham",2,"no_press",0,"GAL","Go",0,106,2,7,"lose","Avoid","lose","no_press",1,"no_press","no_press",0
"268",1070,"DNHR0900",7,6,7,8,5,2520,641,0,-1,"a.sham",2,"no_press",0,"GAL","Go",0,110,2,8,"lose","Avoid","lose","no_press",1,"no_press","no_press",0
"269",1075,"DNHR0900",7,6,7,8,5,1953,774,0,-1,"a.sham",2,"no_press",0,"GAL","Go",0,115,2,9,"lose","Avoid","lose","press",1,"press","press",1
"270",1076,"DNHR0900",7,6,7,8,5,1841,779,1204,-1,"a.sham",2,"press",1,"GAL","Go",1,116,2,10,"lose","Avoid","lose","press",0,NA,"press",1
"271",1077,"DNHR0900",7,6,7,8,5,3539,595,980,0,"a.sham",2,"press",1,"GAL","Go",1,117,2,11,"neutral","Avoid",NA,"press",1,"press","press",1
"272",1082,"DNHR0900",7,6,7,8,5,2289,570,765,0,"a.sham",2,"press",1,"GAL","Go",1,122,2,12,"neutral","Avoid",NA,"press",1,"press","press",1
"273",1086,"DNHR0900",7,6,7,8,5,3243,576,763,0,"a.sham",2,"press",1,"GAL","Go",1,126,2,13,"neutral","Avoid",NA,"press",1,"press","press",1
"274",1093,"DNHR0900",7,6,7,8,5,1615,741,1116,0,"a.sham",2,"press",1,"GAL","Go",1,133,2,14,"neutral","Avoid",NA,"press",1,"press","press",1
"275",1101,"DNHR0900",7,6,7,8,5,2442,623,488,0,"a.sham",2,"press",1,"GAL","Go",1,141,2,15,"neutral","Avoid",NA,"press",1,"press","press",1
"276",1103,"DNHR0900",7,6,7,8,5,1710,527,630,0,"a.sham",2,"press",1,"GAL","Go",1,143,2,16,"neutral","Avoid",NA,"press",1,"press","press",1
"277",1113,"DNHR0900",7,6,7,8,5,3659,819,450,0,"a.sham",2,"press",1,"GAL","Go",1,153,2,17,"neutral","Avoid",NA,"press",1,"press","press",1
"278",1114,"DNHR0900",7,6,7,8,5,1547,572,711,0,"a.sham",2,"press",1,"GAL","Go",1,154,2,18,"neutral","Avoid",NA,"no_press",1,"no_press","no_press",0
"279",1116,"DNHR0900",7,6,7,8,5,2202,739,0,-1,"a.sham",2,"no_press",0,"GAL","Go",0,156,2,19,"lose","Avoid","lose","press",1,"press","press",1
"280",1117,"DNHR0900",7,6,7,8,5,1988,974,438,0,"a.sham",2,"press",1,"GAL","Go",1,157,2,20,"neutral","Avoid",NA,"press",1,"press",NA,NA
"281",1122,"DNHR0900",11,12,11,10,9,3460,929,830,0,"a.sham",2,"press",1,"GAL","Go",1,162,3,1,"neutral","Avoid",NA,"press",1,"press","press",1
"282",1124,"DNHR0900",11,12,11,10,9,1631,640,821,-1,"a.sham",2,"press",1,"GAL","Go",1,164,3,2,"lose","Avoid","lose","no_press",0,NA,"no_press",0
"283",1133,"DNHR0900",11,12,11,10,9,1782,805,0,-1,"a.sham",2,"no_press",0,"GAL","Go",0,173,3,3,"lose","Avoid","lose","press",1,"press","press",1
"284",1136,"DNHR0900",11,12,11,10,9,2640,504,457,-1,"a.sham",2,"press",1,"GAL","Go",1,176,3,4,"lose","Avoid","lose","no_press",0,NA,"no_press",0
"285",1139,"DNHR0900",11,12,11,10,9,2398,783,0,-1,"a.sham",2,"no_press",0,"GAL","Go",0,179,3,5,"lose","Avoid","lose","no_press",1,"no_press","no_press",0
"286",1149,"DNHR0900",11,12,11,10,9,1782,806,0,-1,"a.sham",2,"no_press",0,"GAL","Go",0,189,3,6,"lose","Avoid","lose","press",1,"press","press",1
"287",1150,"DNHR0900",11,12,11,10,9,2332,669,399,0,"a.sham",2,"press",1,"GAL","Go",1,190,3,7,"neutral","Avoid",NA,"press",1,"press","press",1
"288",1151,"DNHR0900",11,12,11,10,9,1254,552,646,0,"a.sham",2,"press",1,"GAL","Go",1,191,3,8,"neutral","Avoid",NA,"press",1,"press","press",1
"289",1163,"DNHR0900",11,12,11,10,9,2194,802,1108,0,"a.sham",2,"press",1,"GAL","Go",1,203,3,9,"neutral","Avoid",NA,"press",1,"press","press",1
"290",1170,"DNHR0900",11,12,11,10,9,2587,699,766,-1,"a.sham",2,"press",1,"GAL","Go",1,210,3,10,"lose","Avoid","lose","press",0,NA,"press",1
"291",1173,"DNHR0900",11,12,11,10,9,1368,554,875,0,"a.sham",2,"press",1,"GAL","Go",1,213,3,11,"neutral","Avoid",NA,"press",1,"press","press",1
"292",1174,"DNHR0900",11,12,11,10,9,1623,596,742,0,"a.sham",2,"press",1,"GAL","Go",1,214,3,12,"neutral","Avoid",NA,"press",1,"press","press",1
"293",1179,"DNHR0900",11,12,11,10,9,1386,986,831,0,"a.sham",2,"press",1,"GAL","Go",1,219,3,13,"neutral","Avoid",NA,"press",1,"press","press",1
"294",1181,"DNHR0900",11,12,11,10,9,1922,556,772,-1,"a.sham",2,"press",1,"GAL","Go",1,221,3,14,"lose","Avoid","lose","press",0,NA,"press",1
"295",1182,"DNHR0900",11,12,11,10,9,1975,997,863,0,"a.sham",2,"press",1,"GAL","Go",1,222,3,15,"neutral","Avoid",NA,"press",1,"press","press",1
"296",1185,"DNHR0900",11,12,11,10,9,2244,899,795,0,"a.sham",2,"press",1,"GAL","Go",1,225,3,16,"neutral","Avoid",NA,"press",1,"press","press",1
"297",1187,"DNHR0900",11,12,11,10,9,1856,768,719,0,"a.sham",2,"press",1,"GAL","Go",1,227,3,17,"neutral","Avoid",NA,"press",1,"press","press",1
"298",1188,"DNHR0900",11,12,11,10,9,2668,759,727,0,"a.sham",2,"press",1,"GAL","Go",1,228,3,18,"neutral","Avoid",NA,"press",1,"press","press",1
"299",1195,"DNHR0900",11,12,11,10,9,2907,814,577,0,"a.sham",2,"press",1,"GAL","Go",1,235,3,19,"neutral","Avoid",NA,"press",1,"press","press",1
"300",1197,"DNHR0900",11,12,11,10,9,1000,644,863,0,"a.sham",2,"press",1,"GAL","Go",1,237,3,20,"neutral","Avoid",NA,"press",1,"press",NA,NA
"301",1204,"DNHR0900",15,16,15,14,13,1343,681,550,0,"a.sham",2,"press",1,"GAL","Go",1,244,4,1,"neutral","Avoid",NA,"press",1,"press","press",1
"302",1209,"DNHR0900",15,16,15,14,13,2232,886,648,0,"a.sham",2,"press",1,"GAL","Go",1,249,4,2,"neutral","Avoid",NA,"press",1,"press","press",1
"303",1211,"DNHR0900",15,16,15,14,13,1988,875,689,-1,"a.sham",2,"press",1,"GAL","Go",1,251,4,3,"lose","Avoid","lose","press",0,NA,"press",1
"304",1216,"DNHR0900",15,16,15,14,13,2353,976,625,0,"a.sham",2,"press",1,"GAL","Go",1,256,4,4,"neutral","Avoid",NA,"no_press",1,"no_press","no_press",0
"305",1218,"DNHR0900",15,16,15,14,13,2275,913,0,-1,"a.sham",2,"no_press",0,"GAL","Go",0,258,4,5,"lose","Avoid","lose","press",1,"press","press",1
"306",1227,"DNHR0900",15,16,15,14,13,2829,771,592,0,"a.sham",2,"press",1,"GAL","Go",1,267,4,6,"neutral","Avoid",NA,"press",1,"press","press",1
"307",1228,"DNHR0900",15,16,15,14,13,3235,676,1180,0,"a.sham",2,"press",1,"GAL","Go",1,268,4,7,"neutral","Avoid",NA,"no_press",1,"no_press","no_press",0
"308",1232,"DNHR0900",15,16,15,14,13,1342,815,0,0,"a.sham",2,"no_press",0,"GAL","Go",0,272,4,8,"neutral","Avoid",NA,"no_press",0,NA,"no_press",0
"309",1233,"DNHR0900",15,16,15,14,13,2763,857,0,-1,"a.sham",2,"no_press",0,"GAL","Go",0,273,4,9,"lose","Avoid","lose","press",1,"press","press",1
"310",1234,"DNHR0900",15,16,15,14,13,2295,846,523,-1,"a.sham",2,"press",1,"GAL","Go",1,274,4,10,"lose","Avoid","lose","press",0,NA,"press",1
"311",1235,"DNHR0900",15,16,15,14,13,1330,592,1407,0,"a.sham",2,"press",1,"GAL","Go",1,275,4,11,"neutral","Avoid",NA,"press",1,"press","press",1
"312",1246,"DNHR0900",15,16,15,14,13,2276,736,551,0,"a.sham",2,"press",1,"GAL","Go",1,286,4,12,"neutral","Avoid",NA,"no_press",1,"no_press","no_press",0
"313",1247,"DNHR0900",15,16,15,14,13,1212,812,0,0,"a.sham",2,"no_press",0,"GAL","Go",0,287,4,13,"neutral","Avoid",NA,"no_press",0,NA,"no_press",0
"314",1249,"DNHR0900",15,16,15,14,13,1181,921,0,-1,"a.sham",2,"no_press",0,"GAL","Go",0,289,4,14,"lose","Avoid","lose","press",1,"press","press",1
"315",1250,"DNHR0900",15,16,15,14,13,1539,657,648,0,"a.sham",2,"press",1,"GAL","Go",1,290,4,15,"neutral","Avoid",NA,"press",1,"press","press",1
"316",1262,"DNHR0900",15,16,15,14,13,1646,734,998,0,"a.sham",2,"press",1,"GAL","Go",1,302,4,16,"neutral","Avoid",NA,"press",1,"press","press",1
"317",1266,"DNHR0900",15,16,15,14,13,1447,558,1072,0,"a.sham",2,"press",1,"GAL","Go",1,306,4,17,"neutral","Avoid",NA,"press",1,"press","press",1
"318",1274,"DNHR0900",15,16,15,14,13,1757,538,728,0,"a.sham",2,"press",1,"GAL","Go",1,314,4,18,"neutral","Avoid",NA,"press",1,"press","press",1
"319",1279,"DNHR0900",15,16,15,14,13,1470,601,1213,0,"a.sham",2,"press",1,"GAL","Go",1,319,4,19,"neutral","Avoid",NA,"no_press",1,"no_press","no_press",0
"320",1280,"DNHR0900",15,16,15,14,13,2246,559,0,-1,"a.sham",2,"no_press",0,"GAL","Go",0,320,4,20,"lose","Avoid","lose",NA,1,NA,NA,NA
"321",1282,"EEMR0429",3,4,3,2,1,1988,883,0,-1,"a.sham",2,"no_press",0,"GAL","Go",0,2,1,1,"lose","Avoid","lose","press",1,"press","press",1
"322",1288,"EEMR0429",3,4,3,2,1,2671,662,652,0,"a.sham",2,"press",1,"GAL","Go",1,8,1,2,"neutral","Avoid",NA,"press",1,"press","press",1
"323",1289,"EEMR0429",3,4,3,2,1,1510,891,751,0,"a.sham",2,"press",1,"GAL","Go",1,9,1,3,"neutral","Avoid",NA,"press",1,"press","press",1
"324",1294,"EEMR0429",3,4,3,2,1,2151,543,541,0,"a.sham",2,"press",1,"GAL","Go",1,14,1,4,"neutral","Avoid",NA,"press",1,"press","press",1
"325",1301,"EEMR0429",3,4,3,2,1,2305,710,446,0,"a.sham",2,"press",1,"GAL","Go",1,21,1,5,"neutral","Avoid",NA,"press",1,"press","press",1
"326",1309,"EEMR0429",3,4,3,2,1,1485,870,535,-1,"a.sham",2,"press",1,"GAL","Go",1,29,1,6,"lose","Avoid","lose","press",0,NA,"press",1
"327",1315,"EEMR0429",3,4,3,2,1,1874,938,387,0,"a.sham",2,"press",1,"GAL","Go",1,35,1,7,"neutral","Avoid",NA,"no_press",1,"no_press","no_press",0
"328",1317,"EEMR0429",3,4,3,2,1,1851,779,0,-1,"a.sham",2,"no_press",0,"GAL","Go",0,37,1,8,"lose","Avoid","lose","press",1,"press","press",1
"329",1319,"EEMR0429",3,4,3,2,1,1874,644,545,-1,"a.sham",2,"press",1,"GAL","Go",1,39,1,9,"lose","Avoid","lose","press",0,NA,"press",1
"330",1323,"EEMR0429",3,4,3,2,1,2592,877,495,-1,"a.sham",2,"press",1,"GAL","Go",1,43,1,10,"lose","Avoid","lose","press",0,NA,"press",1
"331",1327,"EEMR0429",3,4,3,2,1,2420,685,424,0,"a.sham",2,"press",1,"GAL","Go",1,47,1,11,"neutral","Avoid",NA,"press",1,"press","press",1
"332",1328,"EEMR0429",3,4,3,2,1,2298,933,494,0,"a.sham",2,"press",1,"GAL","Go",1,48,1,12,"neutral","Avoid",NA,"press",1,"press","press",1
"333",1330,"EEMR0429",3,4,3,2,1,2572,547,445,0,"a.sham",2,"press",1,"GAL","Go",1,50,1,13,"neutral","Avoid",NA,"press",1,"press","press",1
"334",1331,"EEMR0429",3,4,3,2,1,1504,541,451,0,"a.sham",2,"press",1,"GAL","Go",1,51,1,14,"neutral","Avoid",NA,"press",1,"press","press",1
"335",1332,"EEMR0429",3,4,3,2,1,1779,512,374,0,"a.sham",2,"press",1,"GAL","Go",1,52,1,15,"neutral","Avoid",NA,"press",1,"press","press",1
"336",1341,"EEMR0429",3,4,3,2,1,2276,750,481,-1,"a.sham",2,"press",1,"GAL","Go",1,61,1,16,"lose","Avoid","lose","press",0,NA,"press",1
"337",1345,"EEMR0429",3,4,3,2,1,2599,699,446,0,"a.sham",2,"press",1,"GAL","Go",1,65,1,17,"neutral","Avoid",NA,"press",1,"press","press",1
"338",1347,"EEMR0429",3,4,3,2,1,1522,525,445,0,"a.sham",2,"press",1,"GAL","Go",1,67,1,18,"neutral","Avoid",NA,"press",1,"press","press",1
"339",1349,"EEMR0429",3,4,3,2,1,2422,994,506,0,"a.sham",2,"press",1,"GAL","Go",1,69,1,19,"neutral","Avoid",NA,"press",1,"press","press",1
"340",1359,"EEMR0429",3,4,3,2,1,2247,677,722,0,"a.sham",2,"press",1,"GAL","Go",1,79,1,20,"neutral","Avoid",NA,"no_press",1,"no_press",NA,NA
"341",1361,"EEMR0429",5,8,5,6,7,2107,856,0,-1,"a.sham",2,"no_press",0,"GAL","Go",0,81,2,1,"lose","Avoid","lose","press",1,"press","press",1
"342",1362,"EEMR0429",5,8,5,6,7,1710,976,790,0,"a.sham",2,"press",1,"GAL","Go",1,82,2,2,"neutral","Avoid",NA,"press",1,"press","press",1
"343",1368,"EEMR0429",5,8,5,6,7,1611,772,562,0,"a.sham",2,"press",1,"GAL","Go",1,88,2,3,"neutral","Avoid",NA,"press",1,"press","press",1
"344",1370,"EEMR0429",5,8,5,6,7,1379,839,656,0,"a.sham",2,"press",1,"GAL","Go",1,90,2,4,"neutral","Avoid",NA,"press",1,"press","press",1
"345",1371,"EEMR0429",5,8,5,6,7,1400,730,690,0,"a.sham",2,"press",1,"GAL","Go",1,91,2,5,"neutral","Avoid",NA,"press",1,"press","press",1
"346",1375,"EEMR0429",5,8,5,6,7,3147,561,558,-1,"a.sham",2,"press",1,"GAL","Go",1,95,2,6,"lose","Avoid","lose","press",0,NA,"press",1
"347",1388,"EEMR0429",5,8,5,6,7,2442,628,363,-1,"a.sham",2,"press",1,"GAL","Go",1,108,2,7,"lose","Avoid","lose","press",0,NA,"press",1
"348",1398,"EEMR0429",5,8,5,6,7,1205,844,475,0,"a.sham",2,"press",1,"GAL","Go",1,118,2,8,"neutral","Avoid",NA,"press",1,"press","press",1
"349",1411,"EEMR0429",5,8,5,6,7,2260,530,454,-1,"a.sham",2,"press",1,"GAL","Go",1,131,2,9,"lose","Avoid","lose","press",0,NA,"press",1
"350",1412,"EEMR0429",5,8,5,6,7,2521,601,368,0,"a.sham",2,"press",1,"GAL","Go",1,132,2,10,"neutral","Avoid",NA,"press",1,"press","press",1
"351",1413,"EEMR0429",5,8,5,6,7,1758,817,480,0,"a.sham",2,"press",1,"GAL","Go",1,133,2,11,"neutral","Avoid",NA,"press",1,"press","press",1
"352",1420,"EEMR0429",5,8,5,6,7,1811,940,431,0,"a.sham",2,"press",1,"GAL","Go",1,140,2,12,"neutral","Avoid",NA,"press",1,"press","press",1
"353",1421,"EEMR0429",5,8,5,6,7,1382,904,350,0,"a.sham",2,"press",1,"GAL","Go",1,141,2,13,"neutral","Avoid",NA,"press",1,"press","press",1
"354",1423,"EEMR0429",5,8,5,6,7,2734,765,495,0,"a.sham",2,"press",1,"GAL","Go",1,143,2,14,"neutral","Avoid",NA,"press",1,"press","press",1
"355",1424,"EEMR0429",5,8,5,6,7,2926,665,473,0,"a.sham",2,"press",1,"GAL","Go",1,144,2,15,"neutral","Avoid",NA,"press",1,"press","press",1
"356",1428,"EEMR0429",5,8,5,6,7,1551,798,454,0,"a.sham",2,"press",1,"GAL","Go",1,148,2,16,"neutral","Avoid",NA,"press",1,"press","press",1
"357",1432,"EEMR0429",5,8,5,6,7,2763,828,384,0,"a.sham",2,"press",1,"GAL","Go",1,152,2,17,"neutral","Avoid",NA,"press",1,"press","press",1
"358",1434,"EEMR0429",5,8,5,6,7,1585,694,485,0,"a.sham",2,"press",1,"GAL","Go",1,154,2,18,"neutral","Avoid",NA,"press",1,"press","press",1
"359",1435,"EEMR0429",5,8,5,6,7,1198,799,322,0,"a.sham",2,"press",1,"GAL","Go",1,155,2,19,"neutral","Avoid",NA,"press",1,"press","press",1
"360",1436,"EEMR0429",5,8,5,6,7,1349,691,401,0,"a.sham",2,"press",1,"GAL","Go",1,156,2,20,"neutral","Avoid",NA,"no_press",1,"no_press",NA,NA
"361",1443,"EEMR0429",9,10,9,12,11,2089,870,0,-1,"a.sham",2,"no_press",0,"GAL","Go",0,163,3,1,"lose","Avoid","lose","press",1,"press","press",1
"362",1448,"EEMR0429",9,10,9,12,11,1660,880,589,0,"a.sham",2,"press",1,"GAL","Go",1,168,3,2,"neutral","Avoid",NA,"press",1,"press","press",1
"363",1450,"EEMR0429",9,10,9,12,11,1743,819,595,0,"a.sham",2,"press",1,"GAL","Go",1,170,3,3,"neutral","Avoid",NA,"press",1,"press","press",1
"364",1452,"EEMR0429",9,10,9,12,11,1838,613,624,0,"a.sham",2,"press",1,"GAL","Go",1,172,3,4,"neutral","Avoid",NA,"press",1,"press","press",1
"365",1453,"EEMR0429",9,10,9,12,11,2927,826,870,-1,"a.sham",2,"press",1,"GAL","Go",1,173,3,5,"lose","Avoid","lose","press",0,NA,"press",1
"366",1461,"EEMR0429",9,10,9,12,11,2818,910,572,-1,"a.sham",2,"press",1,"GAL","Go",1,181,3,6,"lose","Avoid","lose","press",0,NA,"press",1
"367",1462,"EEMR0429",9,10,9,12,11,1880,634,347,0,"a.sham",2,"press",1,"GAL","Go",1,182,3,7,"neutral","Avoid",NA,"press",1,"press","press",1
"368",1465,"EEMR0429",9,10,9,12,11,1794,676,494,0,"a.sham",2,"press",1,"GAL","Go",1,185,3,8,"neutral","Avoid",NA,"press",1,"press","press",1
"369",1466,"EEMR0429",9,10,9,12,11,2958,807,492,0,"a.sham",2,"press",1,"GAL","Go",1,186,3,9,"neutral","Avoid",NA,"press",1,"press","press",1
"370",1471,"EEMR0429",9,10,9,12,11,2058,522,485,0,"a.sham",2,"press",1,"GAL","Go",1,191,3,10,"neutral","Avoid",NA,"press",1,"press","press",1
"371",1472,"EEMR0429",9,10,9,12,11,1631,972,527,0,"a.sham",2,"press",1,"GAL","Go",1,192,3,11,"neutral","Avoid",NA,"press",1,"press","press",1
"372",1474,"EEMR0429",9,10,9,12,11,1504,740,519,0,"a.sham",2,"press",1,"GAL","Go",1,194,3,12,"neutral","Avoid",NA,"press",1,"press","press",1
"373",1476,"EEMR0429",9,10,9,12,11,2934,958,643,0,"a.sham",2,"press",1,"GAL","Go",1,196,3,13,"neutral","Avoid",NA,"press",1,"press","press",1
"374",1485,"EEMR0429",9,10,9,12,11,1832,827,713,0,"a.sham",2,"press",1,"GAL","Go",1,205,3,14,"neutral","Avoid",NA,"press",1,"press","press",1
"375",1488,"EEMR0429",9,10,9,12,11,2194,666,485,0,"a.sham",2,"press",1,"GAL","Go",1,208,3,15,"neutral","Avoid",NA,"press",1,"press","press",1
"376",1490,"EEMR0429",9,10,9,12,11,3235,839,518,0,"a.sham",2,"press",1,"GAL","Go",1,210,3,16,"neutral","Avoid",NA,"press",1,"press","press",1
"377",1503,"EEMR0429",9,10,9,12,11,2925,878,492,0,"a.sham",2,"press",1,"GAL","Go",1,223,3,17,"neutral","Avoid",NA,"press",1,"press","press",1
"378",1511,"EEMR0429",9,10,9,12,11,2244,593,619,0,"a.sham",2,"press",1,"GAL","Go",1,231,3,18,"neutral","Avoid",NA,"press",1,"press","press",1
"379",1517,"EEMR0429",9,10,9,12,11,3075,903,500,0,"a.sham",2,"press",1,"GAL","Go",1,237,3,19,"neutral","Avoid",NA,"press",1,"press","press",1
"380",1519,"EEMR0429",9,10,9,12,11,1513,971,569,-1,"a.sham",2,"press",1,"GAL","Go",1,239,3,20,"lose","Avoid","lose","no_press",0,NA,NA,NA
"381",1528,"EEMR0429",13,14,13,16,15,2114,895,0,-1,"a.sham",2,"no_press",0,"GAL","Go",0,248,4,1,"lose","Avoid","lose","press",1,"press","press",1
"382",1530,"EEMR0429",13,14,13,16,15,2100,772,654,0,"a.sham",2,"press",1,"GAL","Go",1,250,4,2,"neutral","Avoid",NA,"press",1,"press","press",1
"383",1533,"EEMR0429",13,14,13,16,15,1584,619,609,0,"a.sham",2,"press",1,"GAL","Go",1,253,4,3,"neutral","Avoid",NA,"press",1,"press","press",1
"384",1536,"EEMR0429",13,14,13,16,15,1238,812,354,-1,"a.sham",2,"press",1,"GAL","Go",1,256,4,4,"lose","Avoid","lose","press",0,NA,"press",1
"385",1537,"EEMR0429",13,14,13,16,15,2334,823,540,0,"a.sham",2,"press",1,"GAL","Go",1,257,4,5,"neutral","Avoid",NA,"press",1,"press","press",1
"386",1544,"EEMR0429",13,14,13,16,15,1723,972,486,0,"a.sham",2,"press",1,"GAL","Go",1,264,4,6,"neutral","Avoid",NA,"press",1,"press","press",1
"387",1550,"EEMR0429",13,14,13,16,15,1567,830,570,0,"a.sham",2,"press",1,"GAL","Go",1,270,4,7,"neutral","Avoid",NA,"press",1,"press","press",1
"388",1551,"EEMR0429",13,14,13,16,15,2229,992,439,0,"a.sham",2,"press",1,"GAL","Go",1,271,4,8,"neutral","Avoid",NA,"press",1,"press","press",1
"389",1552,"EEMR0429",13,14,13,16,15,1646,801,510,0,"a.sham",2,"press",1,"GAL","Go",1,272,4,9,"neutral","Avoid",NA,"press",1,"press","press",1
"390",1554,"EEMR0429",13,14,13,16,15,2800,925,652,0,"a.sham",2,"press",1,"GAL","Go",1,274,4,10,"neutral","Avoid",NA,"press",1,"press","press",1
"391",1555,"EEMR0429",13,14,13,16,15,1447,871,584,0,"a.sham",2,"press",1,"GAL","Go",1,275,4,11,"neutral","Avoid",NA,"press",1,"press","press",1
"392",1559,"EEMR0429",13,14,13,16,15,2086,672,471,0,"a.sham",2,"press",1,"GAL","Go",1,279,4,12,"neutral","Avoid",NA,"press",1,"press","press",1
"393",1561,"EEMR0429",13,14,13,16,15,1301,852,460,0,"a.sham",2,"press",1,"GAL","Go",1,281,4,13,"neutral","Avoid",NA,"press",1,"press","press",1
"394",1567,"EEMR0429",13,14,13,16,15,1637,754,469,0,"a.sham",2,"press",1,"GAL","Go",1,287,4,14,"neutral","Avoid",NA,"press",1,"press","press",1
"395",1578,"EEMR0429",13,14,13,16,15,2184,915,520,0,"a.sham",2,"press",1,"GAL","Go",1,298,4,15,"neutral","Avoid",NA,"press",1,"press","press",1
"396",1584,"EEMR0429",13,14,13,16,15,2332,677,466,0,"a.sham",2,"press",1,"GAL","Go",1,304,4,16,"neutral","Avoid",NA,"press",1,"press","press",1
"397",1591,"EEMR0429",13,14,13,16,15,2095,955,551,0,"a.sham",2,"press",1,"GAL","Go",1,311,4,17,"neutral","Avoid",NA,"press",1,"press","press",1
"398",1593,"EEMR0429",13,14,13,16,15,1422,873,521,0,"a.sham",2,"press",1,"GAL","Go",1,313,4,18,"neutral","Avoid",NA,"press",1,"press","press",1
"399",1595,"EEMR0429",13,14,13,16,15,2168,872,622,-1,"a.sham",2,"press",1,"GAL","Go",1,315,4,19,"lose","Avoid","lose","press",0,NA,"press",1
"400",1600,"EEMR0429",13,14,13,16,15,2190,686,512,-1,"a.sham",2,"press",1,"GAL","Go",1,320,4,20,"lose","Avoid","lose",NA,0,NA,NA,NA
"401",1603,"FNMA0105",3,4,3,2,1,1964,604,946,0,"a.sham",1,"press",1,"GAL","Go",1,3,1,1,"neutral","Avoid",NA,"press",1,"press","press",1
"402",1610,"FNMA0105",3,4,3,2,1,1953,577,602,0,"a.sham",1,"press",1,"GAL","Go",1,10,1,2,"neutral","Avoid",NA,"no_press",1,"no_press","no_press",0
"403",1616,"FNMA0105",3,4,3,2,1,1761,683,0,-1,"a.sham",1,"no_press",0,"GAL","Go",0,16,1,3,"lose","Avoid","lose","no_press",1,"no_press","no_press",0
"404",1622,"FNMA0105",3,4,3,2,1,2299,911,0,-1,"a.sham",1,"no_press",0,"GAL","Go",0,22,1,4,"lose","Avoid","lose","press",1,"press","press",1
"405",1623,"FNMA0105",3,4,3,2,1,2228,694,558,0,"a.sham",1,"press",1,"GAL","Go",1,23,1,5,"neutral","Avoid",NA,"press",1,"press","press",1
"406",1627,"FNMA0105",3,4,3,2,1,2149,823,629,0,"a.sham",1,"press",1,"GAL","Go",1,27,1,6,"neutral","Avoid",NA,"press",1,"press","press",1
"407",1631,"FNMA0105",3,4,3,2,1,2380,604,594,0,"a.sham",1,"press",1,"GAL","Go",1,31,1,7,"neutral","Avoid",NA,"press",1,"press","press",1
"408",1637,"FNMA0105",3,4,3,2,1,2184,649,802,-1,"a.sham",1,"press",1,"GAL","Go",1,37,1,8,"lose","Avoid","lose","press",0,NA,"press",1
"409",1641,"FNMA0105",3,4,3,2,1,2695,914,569,0,"a.sham",1,"press",1,"GAL","Go",1,41,1,9,"neutral","Avoid",NA,"press",1,"press","press",1
"410",1645,"FNMA0105",3,4,3,2,1,2381,652,439,-1,"a.sham",1,"press",1,"GAL","Go",1,45,1,10,"lose","Avoid","lose","no_press",0,NA,"no_press",0
"411",1649,"FNMA0105",3,4,3,2,1,2041,975,0,-1,"a.sham",1,"no_press",0,"GAL","Go",0,49,1,11,"lose","Avoid","lose","press",1,"press","press",1
"412",1653,"FNMA0105",3,4,3,2,1,1822,978,758,0,"a.sham",1,"press",1,"GAL","Go",1,53,1,12,"neutral","Avoid",NA,"press",1,"press","press",1
"413",1654,"FNMA0105",3,4,3,2,1,1987,801,677,0,"a.sham",1,"press",1,"GAL","Go",1,54,1,13,"neutral","Avoid",NA,"press",1,"press","press",1
"414",1655,"FNMA0105",3,4,3,2,1,2239,644,367,0,"a.sham",1,"press",1,"GAL","Go",1,55,1,14,"neutral","Avoid",NA,"press",1,"press","press",1
"415",1659,"FNMA0105",3,4,3,2,1,1820,850,636,0,"a.sham",1,"press",1,"GAL","Go",1,59,1,15,"neutral","Avoid",NA,"press",1,"press","press",1
"416",1661,"FNMA0105",3,4,3,2,1,1709,581,556,0,"a.sham",1,"press",1,"GAL","Go",1,61,1,16,"neutral","Avoid",NA,"press",1,"press","press",1
"417",1663,"FNMA0105",3,4,3,2,1,1702,887,566,-1,"a.sham",1,"press",1,"GAL","Go",1,63,1,17,"lose","Avoid","lose","press",0,NA,"press",1
"418",1665,"FNMA0105",3,4,3,2,1,2212,544,579,-1,"a.sham",1,"press",1,"GAL","Go",1,65,1,18,"lose","Avoid","lose","press",0,NA,"press",1
"419",1676,"FNMA0105",3,4,3,2,1,2701,903,1124,0,"a.sham",1,"press",1,"GAL","Go",1,76,1,19,"neutral","Avoid",NA,"press",1,"press","press",1
"420",1679,"FNMA0105",3,4,3,2,1,2084,799,829,0,"a.sham",1,"press",1,"GAL","Go",1,79,1,20,"neutral","Avoid",NA,"no_press",1,"no_press",NA,NA
"421",1683,"FNMA0105",7,6,7,8,5,1504,863,0,-1,"a.sham",1,"no_press",0,"GAL","Go",0,83,2,1,"lose","Avoid","lose","no_press",1,"no_press","no_press",0
"422",1684,"FNMA0105",7,6,7,8,5,2010,580,0,-1,"a.sham",1,"no_press",0,"GAL","Go",0,84,2,2,"lose","Avoid","lose","no_press",1,"no_press","no_press",0
"423",1686,"FNMA0105",7,6,7,8,5,1992,656,0,-1,"a.sham",1,"no_press",0,"GAL","Go",0,86,2,3,"lose","Avoid","lose","no_press",1,"no_press","no_press",0
"424",1691,"FNMA0105",7,6,7,8,5,2977,854,0,0,"a.sham",1,"no_press",0,"GAL","Go",0,91,2,4,"neutral","Avoid",NA,"no_press",0,NA,"no_press",0
"425",1692,"FNMA0105",7,6,7,8,5,1505,742,0,-1,"a.sham",1,"no_press",0,"GAL","Go",0,92,2,5,"lose","Avoid","lose","no_press",1,"no_press","no_press",0
"426",1696,"FNMA0105",7,6,7,8,5,2887,812,0,0,"a.sham",1,"no_press",0,"GAL","Go",0,96,2,6,"neutral","Avoid",NA,"no_press",0,NA,"no_press",0
"427",1704,"FNMA0105",7,6,7,8,5,1908,509,0,-1,"a.sham",1,"no_press",0,"GAL","Go",0,104,2,7,"lose","Avoid","lose","no_press",1,"no_press","no_press",0
"428",1707,"FNMA0105",7,6,7,8,5,1824,731,0,-1,"a.sham",1,"no_press",0,"GAL","Go",0,107,2,8,"lose","Avoid","lose","press",1,"press","press",1
"429",1710,"FNMA0105",7,6,7,8,5,1965,804,740,-1,"a.sham",1,"press",1,"GAL","Go",1,110,2,9,"lose","Avoid","lose","no_press",0,NA,"no_press",0
"430",1712,"FNMA0105",7,6,7,8,5,2335,768,0,-1,"a.sham",1,"no_press",0,"GAL","Go",0,112,2,10,"lose","Avoid","lose","no_press",1,"no_press","no_press",0
"431",1714,"FNMA0105",7,6,7,8,5,1674,918,0,-1,"a.sham",1,"no_press",0,"GAL","Go",0,114,2,11,"lose","Avoid","lose","press",1,"press","press",1
"432",1718,"FNMA0105",7,6,7,8,5,1678,701,709,0,"a.sham",1,"press",1,"GAL","Go",1,118,2,12,"neutral","Avoid",NA,"press",1,"press","press",1
"433",1719,"FNMA0105",7,6,7,8,5,2388,883,357,0,"a.sham",1,"press",1,"GAL","Go",1,119,2,13,"neutral","Avoid",NA,"press",1,"press","press",1
"434",1731,"FNMA0105",7,6,7,8,5,2122,704,484,-1,"a.sham",1,"press",1,"GAL","Go",1,131,2,14,"lose","Avoid","lose","no_press",0,NA,"no_press",0
"435",1733,"FNMA0105",7,6,7,8,5,2218,720,0,-1,"a.sham",1,"no_press",0,"GAL","Go",0,133,2,15,"lose","Avoid","lose","no_press",1,"no_press","no_press",0
"436",1737,"FNMA0105",7,6,7,8,5,1518,777,0,-1,"a.sham",1,"no_press",0,"GAL","Go",0,137,2,16,"lose","Avoid","lose","no_press",1,"no_press","no_press",0
"437",1741,"FNMA0105",7,6,7,8,5,2063,655,0,-1,"a.sham",1,"no_press",0,"GAL","Go",0,141,2,17,"lose","Avoid","lose","press",1,"press","press",1
"438",1742,"FNMA0105",7,6,7,8,5,1575,976,449,0,"a.sham",1,"press",1,"GAL","Go",1,142,2,18,"neutral","Avoid",NA,"press",1,"press","press",1
"439",1743,"FNMA0105",7,6,7,8,5,1344,541,369,0,"a.sham",1,"press",1,"GAL","Go",1,143,2,19,"neutral","Avoid",NA,"press",1,"press","press",1
"440",1751,"FNMA0105",7,6,7,8,5,2126,818,690,0,"a.sham",1,"press",1,"GAL","Go",1,151,2,20,"neutral","Avoid",NA,"press",1,"press",NA,NA
"441",1764,"FNMA0105",11,10,11,12,9,2029,517,650,0,"a.sham",1,"press",1,"GAL","Go",1,164,3,1,"neutral","Avoid",NA,"press",1,"press","press",1
"442",1765,"FNMA0105",11,10,11,12,9,2444,574,445,0,"a.sham",1,"press",1,"GAL","Go",1,165,3,2,"neutral","Avoid",NA,"no_press",1,"no_press","no_press",0
"443",1766,"FNMA0105",11,10,11,12,9,1511,918,0,-1,"a.sham",1,"no_press",0,"GAL","Go",0,166,3,3,"lose","Avoid","lose","press",1,"press","press",1
"444",1767,"FNMA0105",11,10,11,12,9,1959,796,1268,0,"a.sham",1,"press",1,"GAL","Go",1,167,3,4,"neutral","Avoid",NA,"press",1,"press","press",1
"445",1768,"FNMA0105",11,10,11,12,9,1456,804,420,-1,"a.sham",1,"press",1,"GAL","Go",1,168,3,5,"lose","Avoid","lose","no_press",0,NA,"no_press",0
"446",1772,"FNMA0105",11,10,11,12,9,2548,527,0,-1,"a.sham",1,"no_press",0,"GAL","Go",0,172,3,6,"lose","Avoid","lose","press",1,"press","press",1
"447",1773,"FNMA0105",11,10,11,12,9,1249,670,471,0,"a.sham",1,"press",1,"GAL","Go",1,173,3,7,"neutral","Avoid",NA,"no_press",1,"no_press","no_press",0
"448",1777,"FNMA0105",11,10,11,12,9,3385,991,0,-1,"a.sham",1,"no_press",0,"GAL","Go",0,177,3,8,"lose","Avoid","lose","no_press",1,"no_press","no_press",0
"449",1779,"FNMA0105",11,10,11,12,9,2724,784,0,-1,"a.sham",1,"no_press",0,"GAL","Go",0,179,3,9,"lose","Avoid","lose","press",1,"press","press",1
"450",1793,"FNMA0105",11,10,11,12,9,2415,566,543,0,"a.sham",1,"press",1,"GAL","Go",1,193,3,10,"neutral","Avoid",NA,"press",1,"press","press",1
"451",1798,"FNMA0105",11,10,11,12,9,1851,847,784,0,"a.sham",1,"press",1,"GAL","Go",1,198,3,11,"neutral","Avoid",NA,"press",1,"press","press",1
"452",1808,"FNMA0105",11,10,11,12,9,2272,528,655,-1,"a.sham",1,"press",1,"GAL","Go",1,208,3,12,"lose","Avoid","lose","press",0,NA,"press",1
"453",1810,"FNMA0105",11,10,11,12,9,1289,639,577,-1,"a.sham",1,"press",1,"GAL","Go",1,210,3,13,"lose","Avoid","lose","press",0,NA,"press",1
"454",1814,"FNMA0105",11,10,11,12,9,2227,736,934,0,"a.sham",1,"press",1,"GAL","Go",1,214,3,14,"neutral","Avoid",NA,"press",1,"press","press",1
"455",1817,"FNMA0105",11,10,11,12,9,2131,879,942,0,"a.sham",1,"press",1,"GAL","Go",1,217,3,15,"neutral","Avoid",NA,"press",1,"press","press",1
"456",1820,"FNMA0105",11,10,11,12,9,1861,643,803,-1,"a.sham",1,"press",1,"GAL","Go",1,220,3,16,"lose","Avoid","lose","press",0,NA,"press",1
"457",1825,"FNMA0105",11,10,11,12,9,2057,649,769,0,"a.sham",1,"press",1,"GAL","Go",1,225,3,17,"neutral","Avoid",NA,"press",1,"press","press",1
"458",1827,"FNMA0105",11,10,11,12,9,2518,720,587,0,"a.sham",1,"press",1,"GAL","Go",1,227,3,18,"neutral","Avoid",NA,"press",1,"press","press",1
"459",1828,"FNMA0105",11,10,11,12,9,2601,781,520,0,"a.sham",1,"press",1,"GAL","Go",1,228,3,19,"neutral","Avoid",NA,"press",1,"press","press",1
"460",1833,"FNMA0105",11,10,11,12,9,1189,727,692,0,"a.sham",1,"press",1,"GAL","Go",1,233,3,20,"neutral","Avoid",NA,"press",1,"press",NA,NA
"461",1848,"FNMA0105",13,14,13,16,15,1922,888,653,0,"a.sham",1,"press",1,"GAL","Go",1,248,4,1,"neutral","Avoid",NA,"no_press",1,"no_press","no_press",0
"462",1855,"FNMA0105",13,14,13,16,15,1826,721,0,0,"a.sham",1,"no_press",0,"GAL","Go",0,255,4,2,"neutral","Avoid",NA,"no_press",0,NA,"no_press",0
"463",1858,"FNMA0105",13,14,13,16,15,1000,574,0,-1,"a.sham",1,"no_press",0,"GAL","Go",0,258,4,3,"lose","Avoid","lose","press",1,"press","press",1
"464",1861,"FNMA0105",13,14,13,16,15,2349,547,651,0,"a.sham",1,"press",1,"GAL","Go",1,261,4,4,"neutral","Avoid",NA,"press",1,"press","press",1
"465",1863,"FNMA0105",13,14,13,16,15,2277,560,524,0,"a.sham",1,"press",1,"GAL","Go",1,263,4,5,"neutral","Avoid",NA,"press",1,"press","press",1
"466",1866,"FNMA0105",13,14,13,16,15,1942,521,821,0,"a.sham",1,"press",1,"GAL","Go",1,266,4,6,"neutral","Avoid",NA,"press",1,"press","press",1
"467",1871,"FNMA0105",13,14,13,16,15,2152,976,617,0,"a.sham",1,"press",1,"GAL","Go",1,271,4,7,"neutral","Avoid",NA,"no_press",1,"no_press","no_press",0
"468",1872,"FNMA0105",13,14,13,16,15,1927,962,0,-1,"a.sham",1,"no_press",0,"GAL","Go",0,272,4,8,"lose","Avoid","lose","no_press",1,"no_press","no_press",0
"469",1873,"FNMA0105",13,14,13,16,15,2018,768,0,-1,"a.sham",1,"no_press",0,"GAL","Go",0,273,4,9,"lose","Avoid","lose","press",1,"press","press",1
"470",1876,"FNMA0105",13,14,13,16,15,1942,726,669,-1,"a.sham",1,"press",1,"GAL","Go",1,276,4,10,"lose","Avoid","lose","press",0,NA,"press",1
"471",1877,"FNMA0105",13,14,13,16,15,3020,699,1147,0,"a.sham",1,"press",1,"GAL","Go",1,277,4,11,"neutral","Avoid",NA,"press",1,"press","press",1
"472",1878,"FNMA0105",13,14,13,16,15,2493,920,354,0,"a.sham",1,"press",1,"GAL","Go",1,278,4,12,"neutral","Avoid",NA,"no_press",1,"no_press","no_press",0
"473",1883,"FNMA0105",13,14,13,16,15,1000,504,0,-1,"a.sham",1,"no_press",0,"GAL","Go",0,283,4,13,"lose","Avoid","lose","press",1,"press","press",1
"474",1895,"FNMA0105",13,14,13,16,15,1565,893,393,0,"a.sham",1,"press",1,"GAL","Go",1,295,4,14,"neutral","Avoid",NA,"press",1,"press","press",1
"475",1896,"FNMA0105",13,14,13,16,15,3029,639,424,-1,"a.sham",1,"press",1,"GAL","Go",1,296,4,15,"lose","Avoid","lose","press",0,NA,"press",1
"476",1897,"FNMA0105",13,14,13,16,15,1133,960,342,0,"a.sham",1,"press",1,"GAL","Go",1,297,4,16,"neutral","Avoid",NA,"press",1,"press","press",1
"477",1902,"FNMA0105",13,14,13,16,15,2026,898,463,0,"a.sham",1,"press",1,"GAL","Go",1,302,4,17,"neutral","Avoid",NA,"press",1,"press","press",1
"478",1906,"FNMA0105",13,14,13,16,15,2700,918,362,0,"a.sham",1,"press",1,"GAL","Go",1,306,4,18,"neutral","Avoid",NA,"press",1,"press","press",1
"479",1907,"FNMA0105",13,14,13,16,15,3158,738,466,0,"a.sham",1,"press",1,"GAL","Go",1,307,4,19,"neutral","Avoid",NA,"press",1,"press","press",1
"480",1918,"FNMA0105",13,14,13,16,15,2448,535,602,0,"a.sham",1,"press",1,"GAL","Go",1,318,4,20,"neutral","Avoid",NA,NA,1,NA,NA,NA
"481",1925,"GAEL0180",3,2,3,4,1,2511,798,552,0,"a.sham",2,"press",1,"GAL","Go",1,5,1,1,"neutral","Avoid",NA,"press",1,"press","press",1
"482",1926,"GAEL0180",3,2,3,4,1,1573,703,890,0,"a.sham",2,"press",1,"GAL","Go",1,6,1,2,"neutral","Avoid",NA,"press",1,"press","press",1
"483",1927,"GAEL0180",3,2,3,4,1,1988,810,557,-1,"a.sham",2,"press",1,"GAL","Go",1,7,1,3,"lose","Avoid","lose","no_press",0,NA,"no_press",0
"484",1929,"GAEL0180",3,2,3,4,1,2053,686,0,-1,"a.sham",2,"no_press",0,"GAL","Go",0,9,1,4,"lose","Avoid","lose","press",1,"press","press",1
"485",1930,"GAEL0180",3,2,3,4,1,2251,533,800,0,"a.sham",2,"press",1,"GAL","Go",1,10,1,5,"neutral","Avoid",NA,"press",1,"press","press",1
"486",1935,"GAEL0180",3,2,3,4,1,2020,1000,528,0,"a.sham",2,"press",1,"GAL","Go",1,15,1,6,"neutral","Avoid",NA,"press",1,"press","press",1
"487",1940,"GAEL0180",3,2,3,4,1,1585,986,624,0,"a.sham",2,"press",1,"GAL","Go",1,20,1,7,"neutral","Avoid",NA,"press",1,"press","press",1
"488",1941,"GAEL0180",3,2,3,4,1,1600,564,539,0,"a.sham",2,"press",1,"GAL","Go",1,21,1,8,"neutral","Avoid",NA,"press",1,"press","press",1
"489",1942,"GAEL0180",3,2,3,4,1,2121,500,375,-1,"a.sham",2,"press",1,"GAL","Go",1,22,1,9,"lose","Avoid","lose","press",0,NA,"press",1
"490",1944,"GAEL0180",3,2,3,4,1,2353,824,439,0,"a.sham",2,"press",1,"GAL","Go",1,24,1,10,"neutral","Avoid",NA,"press",1,"press","press",1
"491",1946,"GAEL0180",3,2,3,4,1,1497,646,371,0,"a.sham",2,"press",1,"GAL","Go",1,26,1,11,"neutral","Avoid",NA,"press",1,"press","press",1
"492",1948,"GAEL0180",3,2,3,4,1,1246,699,486,0,"a.sham",2,"press",1,"GAL","Go",1,28,1,12,"neutral","Avoid",NA,"press",1,"press","press",1
"493",1951,"GAEL0180",3,2,3,4,1,2080,719,660,0,"a.sham",2,"press",1,"GAL","Go",1,31,1,13,"neutral","Avoid",NA,"press",1,"press","press",1
"494",1954,"GAEL0180",3,2,3,4,1,2365,577,494,-1,"a.sham",2,"press",1,"GAL","Go",1,34,1,14,"lose","Avoid","lose","press",0,NA,"press",1
"495",1962,"GAEL0180",3,2,3,4,1,2048,741,585,0,"a.sham",2,"press",1,"GAL","Go",1,42,1,15,"neutral","Avoid",NA,"press",1,"press","press",1
"496",1965,"GAEL0180",3,2,3,4,1,1832,987,353,0,"a.sham",2,"press",1,"GAL","Go",1,45,1,16,"neutral","Avoid",NA,"press",1,"press","press",1
"497",1977,"GAEL0180",3,2,3,4,1,2086,653,778,0,"a.sham",2,"press",1,"GAL","Go",1,57,1,17,"neutral","Avoid",NA,"press",1,"press","press",1
"498",1978,"GAEL0180",3,2,3,4,1,1522,519,530,-1,"a.sham",2,"press",1,"GAL","Go",1,58,1,18,"lose","Avoid","lose","press",0,NA,"press",1
"499",1987,"GAEL0180",3,2,3,4,1,1638,672,421,0,"a.sham",2,"press",1,"GAL","Go",1,67,1,19,"neutral","Avoid",NA,"press",1,"press","press",1
"500",1989,"GAEL0180",3,2,3,4,1,1841,555,426,0,"a.sham",2,"press",1,"GAL","Go",1,69,1,20,"neutral","Avoid",NA,"press",1,"press",NA,NA
"501",2005,"GAEL0180",7,6,7,8,5,1247,601,805,0,"a.sham",2,"press",1,"GAL","Go",1,85,2,1,"neutral","Avoid",NA,"no_press",1,"no_press","no_press",0
"502",2006,"GAEL0180",7,6,7,8,5,3539,589,0,-1,"a.sham",2,"no_press",0,"GAL","Go",0,86,2,2,"lose","Avoid","lose","no_press",1,"no_press","no_press",0
"503",2014,"GAEL0180",7,6,7,8,5,1474,958,0,-1,"a.sham",2,"no_press",0,"GAL","Go",0,94,2,3,"lose","Avoid","lose","press",1,"press","press",1
"504",2016,"GAEL0180",7,6,7,8,5,2907,684,660,0,"a.sham",2,"press",1,"GAL","Go",1,96,2,4,"neutral","Avoid",NA,"press",1,"press","press",1
"505",2021,"GAEL0180",7,6,7,8,5,1851,509,549,-1,"a.sham",2,"press",1,"GAL","Go",1,101,2,5,"lose","Avoid","lose","press",0,NA,"press",1
"506",2025,"GAEL0180",7,6,7,8,5,1857,512,885,0,"a.sham",2,"press",1,"GAL","Go",1,105,2,6,"neutral","Avoid",NA,"press",1,"press","press",1
"507",2026,"GAEL0180",7,6,7,8,5,1513,775,613,-1,"a.sham",2,"press",1,"GAL","Go",1,106,2,7,"lose","Avoid","lose","no_press",0,NA,"no_press",0
"508",2029,"GAEL0180",7,6,7,8,5,1478,718,0,-1,"a.sham",2,"no_press",0,"GAL","Go",0,109,2,8,"lose","Avoid","lose","press",1,"press","press",1
"509",2030,"GAEL0180",7,6,7,8,5,2925,782,514,0,"a.sham",2,"press",1,"GAL","Go",1,110,2,9,"neutral","Avoid",NA,"press",1,"press","press",1
"510",2033,"GAEL0180",7,6,7,8,5,2014,678,801,-1,"a.sham",2,"press",1,"GAL","Go",1,113,2,10,"lose","Avoid","lose","press",0,NA,"press",1
"511",2038,"GAEL0180",7,6,7,8,5,2184,722,653,0,"a.sham",2,"press",1,"GAL","Go",1,118,2,11,"neutral","Avoid",NA,"no_press",1,"no_press","no_press",0
"512",2041,"GAEL0180",7,6,7,8,5,2243,912,0,-1,"a.sham",2,"no_press",0,"GAL","Go",0,121,2,12,"lose","Avoid","lose","press",1,"press","press",1
"513",2042,"GAEL0180",7,6,7,8,5,2256,781,640,-1,"a.sham",2,"press",1,"GAL","Go",1,122,2,13,"lose","Avoid","lose","press",0,NA,"press",1
"514",2050,"GAEL0180",7,6,7,8,5,1610,837,596,0,"a.sham",2,"press",1,"GAL","Go",1,130,2,14,"neutral","Avoid",NA,"press",1,"press","press",1
"515",2056,"GAEL0180",7,6,7,8,5,1820,738,584,0,"a.sham",2,"press",1,"GAL","Go",1,136,2,15,"neutral","Avoid",NA,"press",1,"press","press",1
"516",2057,"GAEL0180",7,6,7,8,5,1379,854,509,0,"a.sham",2,"press",1,"GAL","Go",1,137,2,16,"neutral","Avoid",NA,"press",1,"press","press",1
"517",2059,"GAEL0180",7,6,7,8,5,1277,647,496,0,"a.sham",2,"press",1,"GAL","Go",1,139,2,17,"neutral","Avoid",NA,"press",1,"press","press",1
"518",2064,"GAEL0180",7,6,7,8,5,1502,616,545,0,"a.sham",2,"press",1,"GAL","Go",1,144,2,18,"neutral","Avoid",NA,"press",1,"press","press",1
"519",2077,"GAEL0180",7,6,7,8,5,1510,928,540,0,"a.sham",2,"press",1,"GAL","Go",1,157,2,19,"neutral","Avoid",NA,"press",1,"press","press",1
"520",2080,"GAEL0180",7,6,7,8,5,3057,723,501,0,"a.sham",2,"press",1,"GAL","Go",1,160,2,20,"neutral","Avoid",NA,"press",1,"press",NA,NA
"521",2084,"GAEL0180",9,10,9,12,11,1733,802,583,0,"a.sham",2,"press",1,"GAL","Go",1,164,3,1,"neutral","Avoid",NA,"no_press",1,"no_press","no_press",0
"522",2086,"GAEL0180",9,10,9,12,11,2958,855,0,0,"a.sham",2,"no_press",0,"GAL","Go",0,166,3,2,"neutral","Avoid",NA,"press",0,NA,"press",1
"523",2090,"GAEL0180",9,10,9,12,11,2371,545,543,0,"a.sham",2,"press",1,"GAL","Go",1,170,3,3,"neutral","Avoid",NA,"no_press",1,"no_press","no_press",0
"524",2092,"GAEL0180",9,10,9,12,11,1318,965,0,-1,"a.sham",2,"no_press",0,"GAL","Go",0,172,3,4,"lose","Avoid","lose","press",1,"press","press",1
"525",2093,"GAEL0180",9,10,9,12,11,2128,970,641,-1,"a.sham",2,"press",1,"GAL","Go",1,173,3,5,"lose","Avoid","lose","press",0,NA,"press",1
"526",2094,"GAEL0180",9,10,9,12,11,1504,784,460,0,"a.sham",2,"press",1,"GAL","Go",1,174,3,6,"neutral","Avoid",NA,"press",1,"press","press",1
"527",2098,"GAEL0180",9,10,9,12,11,2054,924,545,0,"a.sham",2,"press",1,"GAL","Go",1,178,3,7,"neutral","Avoid",NA,"press",1,"press","press",1
"528",2117,"GAEL0180",9,10,9,12,11,2763,508,608,0,"a.sham",2,"press",1,"GAL","Go",1,197,3,8,"neutral","Avoid",NA,"press",1,"press","press",1
"529",2120,"GAEL0180",9,10,9,12,11,1871,936,549,0,"a.sham",2,"press",1,"GAL","Go",1,200,3,9,"neutral","Avoid",NA,"press",1,"press","press",1
"530",2127,"GAEL0180",9,10,9,12,11,2231,604,530,0,"a.sham",2,"press",1,"GAL","Go",1,207,3,10,"neutral","Avoid",NA,"press",1,"press","press",1
"531",2129,"GAEL0180",9,10,9,12,11,1788,577,526,0,"a.sham",2,"press",1,"GAL","Go",1,209,3,11,"neutral","Avoid",NA,"press",1,"press","press",1
"532",2135,"GAEL0180",9,10,9,12,11,1565,971,526,0,"a.sham",2,"press",1,"GAL","Go",1,215,3,12,"neutral","Avoid",NA,"press",1,"press","press",1
"533",2137,"GAEL0180",9,10,9,12,11,1547,991,594,0,"a.sham",2,"press",1,"GAL","Go",1,217,3,13,"neutral","Avoid",NA,"press",1,"press","press",1
"534",2138,"GAEL0180",9,10,9,12,11,1832,966,489,-1,"a.sham",2,"press",1,"GAL","Go",1,218,3,14,"lose","Avoid","lose","press",0,NA,"press",1
"535",2142,"GAEL0180",9,10,9,12,11,2374,786,516,0,"a.sham",2,"press",1,"GAL","Go",1,222,3,15,"neutral","Avoid",NA,"press",1,"press","press",1
"536",2147,"GAEL0180",9,10,9,12,11,2114,550,798,0,"a.sham",2,"press",1,"GAL","Go",1,227,3,16,"neutral","Avoid",NA,"press",1,"press","press",1
"537",2150,"GAEL0180",9,10,9,12,11,2203,674,495,0,"a.sham",2,"press",1,"GAL","Go",1,230,3,17,"neutral","Avoid",NA,"press",1,"press","press",1
"538",2156,"GAEL0180",9,10,9,12,11,2572,601,564,0,"a.sham",2,"press",1,"GAL","Go",1,236,3,18,"neutral","Avoid",NA,"press",1,"press","press",1
"539",2158,"GAEL0180",9,10,9,12,11,1349,863,509,0,"a.sham",2,"press",1,"GAL","Go",1,238,3,19,"neutral","Avoid",NA,"press",1,"press","press",1
"540",2159,"GAEL0180",9,10,9,12,11,1900,642,571,0,"a.sham",2,"press",1,"GAL","Go",1,239,3,20,"neutral","Avoid",NA,"press",1,"press",NA,NA
"541",2162,"GAEL0180",15,16,15,14,13,2295,1000,553,0,"a.sham",2,"press",1,"GAL","Go",1,242,4,1,"neutral","Avoid",NA,"press",1,"press","press",1
"542",2163,"GAEL0180",15,16,15,14,13,2800,769,448,-1,"a.sham",2,"press",1,"GAL","Go",1,243,4,2,"lose","Avoid","lose","no_press",0,NA,"no_press",0
"543",2166,"GAEL0180",15,16,15,14,13,3219,600,0,-1,"a.sham",2,"no_press",0,"GAL","Go",0,246,4,3,"lose","Avoid","lose","no_press",1,"no_press","no_press",0
"544",2168,"GAEL0180",15,16,15,14,13,2074,945,0,-1,"a.sham",2,"no_press",0,"GAL","Go",0,248,4,4,"lose","Avoid","lose","press",1,"press","press",1
"545",2182,"GAEL0180",15,16,15,14,13,1646,752,864,0,"a.sham",2,"press",1,"GAL","Go",1,262,4,5,"neutral","Avoid",NA,"press",1,"press","press",1
"546",2191,"GAEL0180",15,16,15,14,13,3094,656,571,0,"a.sham",2,"press",1,"GAL","Go",1,271,4,6,"neutral","Avoid",NA,"press",1,"press","press",1
"547",2195,"GAEL0180",15,16,15,14,13,2127,926,502,0,"a.sham",2,"press",1,"GAL","Go",1,275,4,7,"neutral","Avoid",NA,"press",1,"press","press",1
"548",2200,"GAEL0180",15,16,15,14,13,1997,925,538,-1,"a.sham",2,"press",1,"GAL","Go",1,280,4,8,"lose","Avoid","lose","press",0,NA,"press",1
"549",2203,"GAEL0180",15,16,15,14,13,1480,656,582,0,"a.sham",2,"press",1,"GAL","Go",1,283,4,9,"neutral","Avoid",NA,"press",1,"press","press",1
"550",2207,"GAEL0180",15,16,15,14,13,1567,837,482,0,"a.sham",2,"press",1,"GAL","Go",1,287,4,10,"neutral","Avoid",NA,"press",1,"press","press",1
"551",2212,"GAEL0180",15,16,15,14,13,2507,791,496,0,"a.sham",2,"press",1,"GAL","Go",1,292,4,11,"neutral","Avoid",NA,"press",1,"press","press",1
"552",2214,"GAEL0180",15,16,15,14,13,2190,609,573,0,"a.sham",2,"press",1,"GAL","Go",1,294,4,12,"neutral","Avoid",NA,"press",1,"press","press",1
"553",2215,"GAEL0180",15,16,15,14,13,1000,586,510,-1,"a.sham",2,"press",1,"GAL","Go",1,295,4,13,"lose","Avoid","lose","press",0,NA,"press",1
"554",2219,"GAEL0180",15,16,15,14,13,2276,523,464,-1,"a.sham",2,"press",1,"GAL","Go",1,299,4,14,"lose","Avoid","lose","press",0,NA,"press",1
"555",2223,"GAEL0180",15,16,15,14,13,1254,781,674,0,"a.sham",2,"press",1,"GAL","Go",1,303,4,15,"neutral","Avoid",NA,"press",1,"press","press",1
"556",2224,"GAEL0180",15,16,15,14,13,2572,872,618,0,"a.sham",2,"press",1,"GAL","Go",1,304,4,16,"neutral","Avoid",NA,"press",1,"press","press",1
"557",2226,"GAEL0180",15,16,15,14,13,2527,903,470,0,"a.sham",2,"press",1,"GAL","Go",1,306,4,17,"neutral","Avoid",NA,"press",1,"press","press",1
"558",2231,"GAEL0180",15,16,15,14,13,1720,834,593,0,"a.sham",2,"press",1,"GAL","Go",1,311,4,18,"neutral","Avoid",NA,"press",1,"press","press",1
"559",2234,"GAEL0180",15,16,15,14,13,1198,606,488,0,"a.sham",2,"press",1,"GAL","Go",1,314,4,19,"neutral","Avoid",NA,"press",1,"press","press",1
"560",2238,"GAEL0180",15,16,15,14,13,1342,588,478,0,"a.sham",2,"press",1,"GAL","Go",1,318,4,20,"neutral","Avoid",NA,NA,1,NA,NA,NA
"561",2242,"JAKA0154",3,4,3,2,1,1988,883,1098,0,"a.sham",2,"press",1,"GAL","Go",1,2,1,1,"neutral","Avoid",NA,"press",1,"press","press",1
"562",2248,"JAKA0154",3,4,3,2,1,2671,662,1144,0,"a.sham",2,"press",1,"GAL","Go",1,8,1,2,"neutral","Avoid",NA,"no_press",1,"no_press","no_press",0
"563",2249,"JAKA0154",3,4,3,2,1,1510,891,0,-1,"a.sham",2,"no_press",0,"GAL","Go",0,9,1,3,"lose","Avoid","lose","press",1,"press","press",1
"564",2254,"JAKA0154",3,4,3,2,1,2151,543,823,0,"a.sham",2,"press",1,"GAL","Go",1,14,1,4,"neutral","Avoid",NA,"press",1,"press","press",1
"565",2261,"JAKA0154",3,4,3,2,1,2305,710,849,0,"a.sham",2,"press",1,"GAL","Go",1,21,1,5,"neutral","Avoid",NA,"no_press",1,"no_press","no_press",0
"566",2269,"JAKA0154",3,4,3,2,1,1485,870,0,0,"a.sham",2,"no_press",0,"GAL","Go",0,29,1,6,"neutral","Avoid",NA,"no_press",0,NA,"no_press",0
"567",2275,"JAKA0154",3,4,3,2,1,1874,938,0,-1,"a.sham",2,"no_press",0,"GAL","Go",0,35,1,7,"lose","Avoid","lose","press",1,"press","press",1
"568",2277,"JAKA0154",3,4,3,2,1,1851,779,864,0,"a.sham",2,"press",1,"GAL","Go",1,37,1,8,"neutral","Avoid",NA,"press",1,"press","press",1
"569",2279,"JAKA0154",3,4,3,2,1,1874,644,851,-1,"a.sham",2,"press",1,"GAL","Go",1,39,1,9,"lose","Avoid","lose","press",0,NA,"press",1
"570",2283,"JAKA0154",3,4,3,2,1,2592,877,574,-1,"a.sham",2,"press",1,"GAL","Go",1,43,1,10,"lose","Avoid","lose","press",0,NA,"press",1
"571",2287,"JAKA0154",3,4,3,2,1,2420,685,446,0,"a.sham",2,"press",1,"GAL","Go",1,47,1,11,"neutral","Avoid",NA,"press",1,"press","press",1
"572",2288,"JAKA0154",3,4,3,2,1,2298,933,627,0,"a.sham",2,"press",1,"GAL","Go",1,48,1,12,"neutral","Avoid",NA,"press",1,"press","press",1
"573",2290,"JAKA0154",3,4,3,2,1,2572,547,1189,0,"a.sham",2,"press",1,"GAL","Go",1,50,1,13,"neutral","Avoid",NA,"press",1,"press","press",1
"574",2291,"JAKA0154",3,4,3,2,1,1504,541,574,0,"a.sham",2,"press",1,"GAL","Go",1,51,1,14,"neutral","Avoid",NA,"press",1,"press","press",1
"575",2292,"JAKA0154",3,4,3,2,1,1779,512,548,0,"a.sham",2,"press",1,"GAL","Go",1,52,1,15,"neutral","Avoid",NA,"press",1,"press","press",1
"576",2301,"JAKA0154",3,4,3,2,1,2276,750,1131,-1,"a.sham",2,"press",1,"GAL","Go",1,61,1,16,"lose","Avoid","lose","press",0,NA,"press",1
"577",2305,"JAKA0154",3,4,3,2,1,2599,699,1420,0,"a.sham",2,"press",1,"GAL","Go",1,65,1,17,"neutral","Avoid",NA,"press",1,"press","press",1
"578",2307,"JAKA0154",3,4,3,2,1,1522,525,991,0,"a.sham",2,"press",1,"GAL","Go",1,67,1,18,"neutral","Avoid",NA,"press",1,"press","press",1
"579",2309,"JAKA0154",3,4,3,2,1,2422,994,590,0,"a.sham",2,"press",1,"GAL","Go",1,69,1,19,"neutral","Avoid",NA,"press",1,"press","press",1
"580",2319,"JAKA0154",3,4,3,2,1,2247,677,615,0,"a.sham",2,"press",1,"GAL","Go",1,79,1,20,"neutral","Avoid",NA,"no_press",1,"no_press",NA,NA
"581",2321,"JAKA0154",5,8,5,6,7,2107,856,0,-1,"a.sham",2,"no_press",0,"GAL","Go",0,81,2,1,"lose","Avoid","lose","press",1,"press","press",1
"582",2322,"JAKA0154",5,8,5,6,7,1710,976,919,0,"a.sham",2,"press",1,"GAL","Go",1,82,2,2,"neutral","Avoid",NA,"press",1,"press","press",1
"583",2328,"JAKA0154",5,8,5,6,7,1611,772,963,0,"a.sham",2,"press",1,"GAL","Go",1,88,2,3,"neutral","Avoid",NA,"press",1,"press","press",1
"584",2330,"JAKA0154",5,8,5,6,7,1379,839,1146,0,"a.sham",2,"press",1,"GAL","Go",1,90,2,4,"neutral","Avoid",NA,"press",1,"press","press",1
"585",2331,"JAKA0154",5,8,5,6,7,1400,730,672,0,"a.sham",2,"press",1,"GAL","Go",1,91,2,5,"neutral","Avoid",NA,"press",1,"press","press",1
"586",2335,"JAKA0154",5,8,5,6,7,3147,561,687,-1,"a.sham",2,"press",1,"GAL","Go",1,95,2,6,"lose","Avoid","lose","press",0,NA,"press",1
"587",2348,"JAKA0154",5,8,5,6,7,2442,628,430,-1,"a.sham",2,"press",1,"GAL","Go",1,108,2,7,"lose","Avoid","lose","press",0,NA,"press",1
"588",2358,"JAKA0154",5,8,5,6,7,1205,844,1500,0,"a.sham",2,"press",1,"GAL","Go",1,118,2,8,"neutral","Avoid",NA,"no_press",1,"no_press","no_press",0
"589",2371,"JAKA0154",5,8,5,6,7,2260,530,0,0,"a.sham",2,"no_press",0,"GAL","Go",0,131,2,9,"neutral","Avoid",NA,"no_press",0,NA,"no_press",0
"590",2372,"JAKA0154",5,8,5,6,7,2521,601,0,-1,"a.sham",2,"no_press",0,"GAL","Go",0,132,2,10,"lose","Avoid","lose","press",1,"press","press",1
"591",2373,"JAKA0154",5,8,5,6,7,1758,817,601,0,"a.sham",2,"press",1,"GAL","Go",1,133,2,11,"neutral","Avoid",NA,"press",1,"press","press",1
"592",2380,"JAKA0154",5,8,5,6,7,1811,940,1126,0,"a.sham",2,"press",1,"GAL","Go",1,140,2,12,"neutral","Avoid",NA,"press",1,"press","press",1
"593",2381,"JAKA0154",5,8,5,6,7,1382,904,1041,0,"a.sham",2,"press",1,"GAL","Go",1,141,2,13,"neutral","Avoid",NA,"press",1,"press","press",1
"594",2383,"JAKA0154",5,8,5,6,7,2734,765,751,0,"a.sham",2,"press",1,"GAL","Go",1,143,2,14,"neutral","Avoid",NA,"press",1,"press","press",1
"595",2384,"JAKA0154",5,8,5,6,7,2926,665,1103,0,"a.sham",2,"press",1,"GAL","Go",1,144,2,15,"neutral","Avoid",NA,"press",1,"press","press",1
"596",2388,"JAKA0154",5,8,5,6,7,1551,798,406,0,"a.sham",2,"press",1,"GAL","Go",1,148,2,16,"neutral","Avoid",NA,"press",1,"press","press",1
"597",2392,"JAKA0154",5,8,5,6,7,2763,828,601,0,"a.sham",2,"press",1,"GAL","Go",1,152,2,17,"neutral","Avoid",NA,"press",1,"press","press",1
"598",2394,"JAKA0154",5,8,5,6,7,1585,694,949,0,"a.sham",2,"press",1,"GAL","Go",1,154,2,18,"neutral","Avoid",NA,"press",1,"press","press",1
"599",2395,"JAKA0154",5,8,5,6,7,1198,799,736,0,"a.sham",2,"press",1,"GAL","Go",1,155,2,19,"neutral","Avoid",NA,"press",1,"press","press",1
"600",2396,"JAKA0154",5,8,5,6,7,1349,691,621,0,"a.sham",2,"press",1,"GAL","Go",1,156,2,20,"neutral","Avoid",NA,"no_press",1,"no_press",NA,NA
"601",2403,"JAKA0154",9,10,9,12,11,2089,870,0,-1,"a.sham",2,"no_press",0,"GAL","Go",0,163,3,1,"lose","Avoid","lose","no_press",1,"no_press","no_press",0
"602",2408,"JAKA0154",9,10,9,12,11,1660,880,0,-1,"a.sham",2,"no_press",0,"GAL","Go",0,168,3,2,"lose","Avoid","lose","press",1,"press","press",1
"603",2410,"JAKA0154",9,10,9,12,11,1743,819,657,0,"a.sham",2,"press",1,"GAL","Go",1,170,3,3,"neutral","Avoid",NA,"press",1,"press","press",1
"604",2412,"JAKA0154",9,10,9,12,11,1838,613,1131,0,"a.sham",2,"press",1,"GAL","Go",1,172,3,4,"neutral","Avoid",NA,"press",1,"press","press",1
"605",2413,"JAKA0154",9,10,9,12,11,2927,826,1052,-1,"a.sham",2,"press",1,"GAL","Go",1,173,3,5,"lose","Avoid","lose","press",0,NA,"press",1
"606",2421,"JAKA0154",9,10,9,12,11,2818,910,1399,-1,"a.sham",2,"press",1,"GAL","Go",1,181,3,6,"lose","Avoid","lose","no_press",0,NA,"no_press",0
"607",2422,"JAKA0154",9,10,9,12,11,1880,634,0,-1,"a.sham",2,"no_press",0,"GAL","Go",0,182,3,7,"lose","Avoid","lose","no_press",1,"no_press","no_press",0
"608",2425,"JAKA0154",9,10,9,12,11,1794,676,0,-1,"a.sham",2,"no_press",0,"GAL","Go",0,185,3,8,"lose","Avoid","lose","press",1,"press","press",1
"609",2426,"JAKA0154",9,10,9,12,11,2958,807,1023,0,"a.sham",2,"press",1,"GAL","Go",1,186,3,9,"neutral","Avoid",NA,"no_press",1,"no_press","no_press",0
"610",2431,"JAKA0154",9,10,9,12,11,2058,522,0,-1,"a.sham",2,"no_press",0,"GAL","Go",0,191,3,10,"lose","Avoid","lose","press",1,"press","press",1
"611",2432,"JAKA0154",9,10,9,12,11,1631,972,563,0,"a.sham",2,"press",1,"GAL","Go",1,192,3,11,"neutral","Avoid",NA,"press",1,"press","press",1
"612",2434,"JAKA0154",9,10,9,12,11,1504,740,462,0,"a.sham",2,"press",1,"GAL","Go",1,194,3,12,"neutral","Avoid",NA,"press",1,"press","press",1
"613",2436,"JAKA0154",9,10,9,12,11,2934,958,637,0,"a.sham",2,"press",1,"GAL","Go",1,196,3,13,"neutral","Avoid",NA,"press",1,"press","press",1
"614",2445,"JAKA0154",9,10,9,12,11,1832,827,832,0,"a.sham",2,"press",1,"GAL","Go",1,205,3,14,"neutral","Avoid",NA,"no_press",1,"no_press","no_press",0
"615",2448,"JAKA0154",9,10,9,12,11,2194,666,0,-1,"a.sham",2,"no_press",0,"GAL","Go",0,208,3,15,"lose","Avoid","lose","press",1,"press","press",1
"616",2450,"JAKA0154",9,10,9,12,11,3235,839,513,0,"a.sham",2,"press",1,"GAL","Go",1,210,3,16,"neutral","Avoid",NA,"press",1,"press","press",1
"617",2463,"JAKA0154",9,10,9,12,11,2925,878,580,0,"a.sham",2,"press",1,"GAL","Go",1,223,3,17,"neutral","Avoid",NA,"press",1,"press","press",1
"618",2471,"JAKA0154",9,10,9,12,11,2244,593,717,0,"a.sham",2,"press",1,"GAL","Go",1,231,3,18,"neutral","Avoid",NA,"press",1,"press","press",1
"619",2477,"JAKA0154",9,10,9,12,11,3075,903,403,0,"a.sham",2,"press",1,"GAL","Go",1,237,3,19,"neutral","Avoid",NA,"press",1,"press","press",1
"620",2479,"JAKA0154",9,10,9,12,11,1513,971,812,-1,"a.sham",2,"press",1,"GAL","Go",1,239,3,20,"lose","Avoid","lose","no_press",0,NA,NA,NA
"621",2488,"JAKA0154",13,14,13,16,15,2114,895,0,-1,"a.sham",2,"no_press",0,"GAL","Go",0,248,4,1,"lose","Avoid","lose","press",1,"press","press",1
"622",2490,"JAKA0154",13,14,13,16,15,2100,772,616,0,"a.sham",2,"press",1,"GAL","Go",1,250,4,2,"neutral","Avoid",NA,"press",1,"press","press",1
"623",2493,"JAKA0154",13,14,13,16,15,1584,619,1084,0,"a.sham",2,"press",1,"GAL","Go",1,253,4,3,"neutral","Avoid",NA,"press",1,"press","press",1
"624",2496,"JAKA0154",13,14,13,16,15,1238,812,873,-1,"a.sham",2,"press",1,"GAL","Go",1,256,4,4,"lose","Avoid","lose","no_press",0,NA,"no_press",0
"625",2497,"JAKA0154",13,14,13,16,15,2334,823,0,-1,"a.sham",2,"no_press",0,"GAL","Go",0,257,4,5,"lose","Avoid","lose","press",1,"press","press",1
"626",2504,"JAKA0154",13,14,13,16,15,1723,972,1089,0,"a.sham",2,"press",1,"GAL","Go",1,264,4,6,"neutral","Avoid",NA,"press",1,"press","press",1
"627",2510,"JAKA0154",13,14,13,16,15,1567,830,1140,0,"a.sham",2,"press",1,"GAL","Go",1,270,4,7,"neutral","Avoid",NA,"press",1,"press","press",1
"628",2511,"JAKA0154",13,14,13,16,15,2229,992,747,0,"a.sham",2,"press",1,"GAL","Go",1,271,4,8,"neutral","Avoid",NA,"press",1,"press","press",1
"629",2512,"JAKA0154",13,14,13,16,15,1646,801,542,0,"a.sham",2,"press",1,"GAL","Go",1,272,4,9,"neutral","Avoid",NA,"press",1,"press","press",1
"630",2514,"JAKA0154",13,14,13,16,15,2800,925,602,0,"a.sham",2,"press",1,"GAL","Go",1,274,4,10,"neutral","Avoid",NA,"press",1,"press","press",1
"631",2515,"JAKA0154",13,14,13,16,15,1447,871,631,0,"a.sham",2,"press",1,"GAL","Go",1,275,4,11,"neutral","Avoid",NA,"press",1,"press","press",1
"632",2519,"JAKA0154",13,14,13,16,15,2086,672,708,0,"a.sham",2,"press",1,"GAL","Go",1,279,4,12,"neutral","Avoid",NA,"press",1,"press","press",1
"633",2521,"JAKA0154",13,14,13,16,15,1301,852,545,0,"a.sham",2,"press",1,"GAL","Go",1,281,4,13,"neutral","Avoid",NA,"press",1,"press","press",1
"634",2527,"JAKA0154",13,14,13,16,15,1637,754,653,0,"a.sham",2,"press",1,"GAL","Go",1,287,4,14,"neutral","Avoid",NA,"press",1,"press","press",1
"635",2538,"JAKA0154",13,14,13,16,15,2184,915,633,0,"a.sham",2,"press",1,"GAL","Go",1,298,4,15,"neutral","Avoid",NA,"press",1,"press","press",1
"636",2544,"JAKA0154",13,14,13,16,15,2332,677,857,0,"a.sham",2,"press",1,"GAL","Go",1,304,4,16,"neutral","Avoid",NA,"press",1,"press","press",1
"637",2551,"JAKA0154",13,14,13,16,15,2095,955,641,0,"a.sham",2,"press",1,"GAL","Go",1,311,4,17,"neutral","Avoid",NA,"press",1,"press","press",1
"638",2553,"JAKA0154",13,14,13,16,15,1422,873,729,0,"a.sham",2,"press",1,"GAL","Go",1,313,4,18,"neutral","Avoid",NA,"press",1,"press","press",1
"639",2555,"JAKA0154",13,14,13,16,15,2168,872,595,-1,"a.sham",2,"press",1,"GAL","Go",1,315,4,19,"lose","Avoid","lose","press",0,NA,"press",1
"640",2560,"JAKA0154",13,14,13,16,15,2190,686,525,-1,"a.sham",2,"press",1,"GAL","Go",1,320,4,20,"lose","Avoid","lose",NA,0,NA,NA,NA
"641",2561,"JYDF0098",3,4,3,2,1,2331,903,602,0,"a.sham",2,"press",1,"GAL","Go",1,1,1,1,"neutral","Avoid",NA,"press",1,"press","press",1
"642",2569,"JYDF0098",3,4,3,2,1,1671,979,760,-1,"a.sham",2,"press",1,"GAL","Go",1,9,1,2,"lose","Avoid","lose","no_press",0,NA,"no_press",0
"643",2571,"JYDF0098",3,4,3,2,1,1439,808,0,-1,"a.sham",2,"no_press",0,"GAL","Go",0,11,1,3,"lose","Avoid","lose","press",1,"press","press",1
"644",2573,"JYDF0098",3,4,3,2,1,1330,540,445,0,"a.sham",2,"press",1,"GAL","Go",1,13,1,4,"neutral","Avoid",NA,"press",1,"press","press",1
"645",2574,"JYDF0098",3,4,3,2,1,1636,948,576,0,"a.sham",2,"press",1,"GAL","Go",1,14,1,5,"neutral","Avoid",NA,"press",1,"press","press",1
"646",2583,"JYDF0098",3,4,3,2,1,2168,603,785,0,"a.sham",2,"press",1,"GAL","Go",1,23,1,6,"neutral","Avoid",NA,"press",1,"press","press",1
"647",2585,"JYDF0098",3,4,3,2,1,3057,777,688,-1,"a.sham",2,"press",1,"GAL","Go",1,25,1,7,"lose","Avoid","lose","press",0,NA,"press",1
"648",2589,"JYDF0098",3,4,3,2,1,2572,977,926,0,"a.sham",2,"press",1,"GAL","Go",1,29,1,8,"neutral","Avoid",NA,"press",1,"press","press",1
"649",2592,"JYDF0098",3,4,3,2,1,1984,803,538,0,"a.sham",2,"press",1,"GAL","Go",1,32,1,9,"neutral","Avoid",NA,"press",1,"press","press",1
"650",2593,"JYDF0098",3,4,3,2,1,1770,792,996,0,"a.sham",2,"press",1,"GAL","Go",1,33,1,10,"neutral","Avoid",NA,"press",1,"press","press",1
"651",2599,"JYDF0098",3,4,3,2,1,2564,875,518,-1,"a.sham",2,"press",1,"GAL","Go",1,39,1,11,"lose","Avoid","lose","press",0,NA,"press",1
"652",2604,"JYDF0098",3,4,3,2,1,1811,752,649,0,"a.sham",2,"press",1,"GAL","Go",1,44,1,12,"neutral","Avoid",NA,"press",1,"press","press",1
"653",2609,"JYDF0098",3,4,3,2,1,1513,963,664,0,"a.sham",2,"press",1,"GAL","Go",1,49,1,13,"neutral","Avoid",NA,"press",1,"press","press",1
"654",2611,"JYDF0098",3,4,3,2,1,1978,790,546,0,"a.sham",2,"press",1,"GAL","Go",1,51,1,14,"neutral","Avoid",NA,"press",1,"press","press",1
"655",2624,"JYDF0098",3,4,3,2,1,1743,973,555,0,"a.sham",2,"press",1,"GAL","Go",1,64,1,15,"neutral","Avoid",NA,"press",1,"press","press",1
"656",2625,"JYDF0098",3,4,3,2,1,2065,692,599,0,"a.sham",2,"press",1,"GAL","Go",1,65,1,16,"neutral","Avoid",NA,"press",1,"press","press",1
"657",2631,"JYDF0098",3,4,3,2,1,2689,569,578,0,"a.sham",2,"press",1,"GAL","Go",1,71,1,17,"neutral","Avoid",NA,"press",1,"press","press",1
"658",2633,"JYDF0098",3,4,3,2,1,1749,531,561,-1,"a.sham",2,"press",1,"GAL","Go",1,73,1,18,"lose","Avoid","lose","press",0,NA,"press",1
"659",2637,"JYDF0098",3,4,3,2,1,1873,741,618,0,"a.sham",2,"press",1,"GAL","Go",1,77,1,19,"neutral","Avoid",NA,"press",1,"press","press",1
"660",2638,"JYDF0098",3,4,3,2,1,1720,699,787,0,"a.sham",2,"press",1,"GAL","Go",1,78,1,20,"neutral","Avoid",NA,"press",1,"press",NA,NA
"661",2644,"JYDF0098",7,6,7,8,5,2503,922,696,-1,"a.sham",2,"press",1,"GAL","Go",1,84,2,1,"lose","Avoid","lose","press",0,NA,"press",1
"662",2646,"JYDF0098",7,6,7,8,5,1504,751,671,-1,"a.sham",2,"press",1,"GAL","Go",1,86,2,2,"lose","Avoid","lose","no_press",0,NA,"no_press",0
"663",2647,"JYDF0098",7,6,7,8,5,1279,758,0,-1,"a.sham",2,"no_press",0,"GAL","Go",0,87,2,3,"lose","Avoid","lose","no_press",1,"no_press","no_press",0
"664",2653,"JYDF0098",7,6,7,8,5,1461,966,0,-1,"a.sham",2,"no_press",0,"GAL","Go",0,93,2,4,"lose","Avoid","lose","no_press",1,"no_press","no_press",0
"665",2654,"JYDF0098",7,6,7,8,5,2138,910,0,-1,"a.sham",2,"no_press",0,"GAL","Go",0,94,2,5,"lose","Avoid","lose","press",1,"press","press",1
"666",2655,"JYDF0098",7,6,7,8,5,3243,952,561,0,"a.sham",2,"press",1,"GAL","Go",1,95,2,6,"neutral","Avoid",NA,"press",1,"press","press",1
"667",2656,"JYDF0098",7,6,7,8,5,3107,662,804,0,"a.sham",2,"press",1,"GAL","Go",1,96,2,7,"neutral","Avoid",NA,"press",1,"press","press",1
"668",2659,"JYDF0098",7,6,7,8,5,2289,849,459,0,"a.sham",2,"press",1,"GAL","Go",1,99,2,8,"neutral","Avoid",NA,"press",1,"press","press",1
"669",2668,"JYDF0098",7,6,7,8,5,1582,721,860,0,"a.sham",2,"press",1,"GAL","Go",1,108,2,9,"neutral","Avoid",NA,"press",1,"press","press",1
"670",2669,"JYDF0098",7,6,7,8,5,1610,802,684,0,"a.sham",2,"press",1,"GAL","Go",1,109,2,10,"neutral","Avoid",NA,"press",1,"press","press",1
"671",2676,"JYDF0098",7,6,7,8,5,2058,994,530,0,"a.sham",2,"press",1,"GAL","Go",1,116,2,11,"neutral","Avoid",NA,"press",1,"press","press",1
"672",2678,"JYDF0098",7,6,7,8,5,1531,937,550,0,"a.sham",2,"press",1,"GAL","Go",1,118,2,12,"neutral","Avoid",NA,"press",1,"press","press",1
"673",2683,"JYDF0098",7,6,7,8,5,1841,670,610,0,"a.sham",2,"press",1,"GAL","Go",1,123,2,13,"neutral","Avoid",NA,"press",1,"press","press",1
"674",2686,"JYDF0098",7,6,7,8,5,2202,504,693,0,"a.sham",2,"press",1,"GAL","Go",1,126,2,14,"neutral","Avoid",NA,"press",1,"press","press",1
"675",2693,"JYDF0098",7,6,7,8,5,1342,856,583,0,"a.sham",2,"press",1,"GAL","Go",1,133,2,15,"neutral","Avoid",NA,"press",1,"press","press",1
"676",2695,"JYDF0098",7,6,7,8,5,2266,627,571,0,"a.sham",2,"press",1,"GAL","Go",1,135,2,16,"neutral","Avoid",NA,"press",1,"press","press",1
"677",2698,"JYDF0098",7,6,7,8,5,2420,626,620,0,"a.sham",2,"press",1,"GAL","Go",1,138,2,17,"neutral","Avoid",NA,"press",1,"press","press",1
"678",2701,"JYDF0098",7,6,7,8,5,1898,690,666,-1,"a.sham",2,"press",1,"GAL","Go",1,141,2,18,"lose","Avoid","lose","press",0,NA,"press",1
"679",2708,"JYDF0098",7,6,7,8,5,1759,541,748,0,"a.sham",2,"press",1,"GAL","Go",1,148,2,19,"neutral","Avoid",NA,"press",1,"press","press",1
"680",2716,"JYDF0098",7,6,7,8,5,1668,767,661,-1,"a.sham",2,"press",1,"GAL","Go",1,156,2,20,"lose","Avoid","lose","press",0,NA,NA,NA
"681",2722,"JYDF0098",9,12,9,10,11,1575,813,475,0,"a.sham",2,"press",1,"GAL","Go",1,162,3,1,"neutral","Avoid",NA,"no_press",1,"no_press","no_press",0
"682",2728,"JYDF0098",9,12,9,10,11,2306,884,0,0,"a.sham",2,"no_press",0,"GAL","Go",0,168,3,2,"neutral","Avoid",NA,"press",0,NA,"press",1
"683",2732,"JYDF0098",9,12,9,10,11,2435,736,601,0,"a.sham",2,"press",1,"GAL","Go",1,172,3,3,"neutral","Avoid",NA,"no_press",1,"no_press","no_press",0
"684",2737,"JYDF0098",9,12,9,10,11,2958,835,0,-1,"a.sham",2,"no_press",0,"GAL","Go",0,177,3,4,"lose","Avoid","lose","press",1,"press","press",1
"685",2742,"JYDF0098",9,12,9,10,11,1967,627,997,0,"a.sham",2,"press",1,"GAL","Go",1,182,3,5,"neutral","Avoid",NA,"press",1,"press","press",1
"686",2748,"JYDF0098",9,12,9,10,11,1181,628,580,0,"a.sham",2,"press",1,"GAL","Go",1,188,3,6,"neutral","Avoid",NA,"press",1,"press","press",1
"687",2753,"JYDF0098",9,12,9,10,11,1892,780,362,0,"a.sham",2,"press",1,"GAL","Go",1,193,3,7,"neutral","Avoid",NA,"press",1,"press","press",1
"688",2756,"JYDF0098",9,12,9,10,11,2048,676,671,0,"a.sham",2,"press",1,"GAL","Go",1,196,3,8,"neutral","Avoid",NA,"press",1,"press","press",1
"689",2766,"JYDF0098",9,12,9,10,11,2829,579,740,0,"a.sham",2,"press",1,"GAL","Go",1,206,3,9,"neutral","Avoid",NA,"press",1,"press","press",1
"690",2767,"JYDF0098",9,12,9,10,11,2100,948,617,0,"a.sham",2,"press",1,"GAL","Go",1,207,3,10,"neutral","Avoid",NA,"press",1,"press","press",1
"691",2770,"JYDF0098",9,12,9,10,11,1343,870,686,0,"a.sham",2,"press",1,"GAL","Go",1,210,3,11,"neutral","Avoid",NA,"press",1,"press","press",1
"692",2777,"JYDF0098",9,12,9,10,11,1874,859,608,0,"a.sham",2,"press",1,"GAL","Go",1,217,3,12,"neutral","Avoid",NA,"press",1,"press","press",1
"693",2779,"JYDF0098",9,12,9,10,11,2934,905,678,0,"a.sham",2,"press",1,"GAL","Go",1,219,3,13,"neutral","Avoid",NA,"press",1,"press","press",1
"694",2787,"JYDF0098",9,12,9,10,11,2102,901,547,0,"a.sham",2,"press",1,"GAL","Go",1,227,3,14,"neutral","Avoid",NA,"press",1,"press","press",1
"695",2788,"JYDF0098",9,12,9,10,11,1759,513,565,0,"a.sham",2,"press",1,"GAL","Go",1,228,3,15,"neutral","Avoid",NA,"press",1,"press","press",1
"696",2794,"JYDF0098",9,12,9,10,11,1469,503,542,-1,"a.sham",2,"press",1,"GAL","Go",1,234,3,16,"lose","Avoid","lose","press",0,NA,"press",1
"697",2795,"JYDF0098",9,12,9,10,11,2246,544,578,0,"a.sham",2,"press",1,"GAL","Go",1,235,3,17,"neutral","Avoid",NA,"press",1,"press","press",1
"698",2798,"JYDF0098",9,12,9,10,11,1427,678,625,-1,"a.sham",2,"press",1,"GAL","Go",1,238,3,18,"lose","Avoid","lose","press",0,NA,"press",1
"699",2799,"JYDF0098",9,12,9,10,11,2184,666,641,0,"a.sham",2,"press",1,"GAL","Go",1,239,3,19,"neutral","Avoid",NA,"press",1,"press","press",1
"700",2800,"JYDF0098",9,12,9,10,11,2507,896,475,0,"a.sham",2,"press",1,"GAL","Go",1,240,3,20,"neutral","Avoid",NA,"press",1,"press",NA,NA
"701",2802,"JYDF0098",13,16,13,14,15,1851,836,660,0,"a.sham",2,"press",1,"GAL","Go",1,242,4,1,"neutral","Avoid",NA,"press",1,"press","press",1
"702",2819,"JYDF0098",13,16,13,14,15,1985,860,627,0,"a.sham",2,"press",1,"GAL","Go",1,259,4,2,"neutral","Avoid",NA,"press",1,"press","press",1
"703",2824,"JYDF0098",13,16,13,14,15,1841,520,617,0,"a.sham",2,"press",1,"GAL","Go",1,264,4,3,"neutral","Avoid",NA,"press",1,"press","press",1
"704",2825,"JYDF0098",13,16,13,14,15,2566,910,567,0,"a.sham",2,"press",1,"GAL","Go",1,265,4,4,"neutral","Avoid",NA,"press",1,"press","press",1
