"","ID","stim_ID","GW","GAL","NGW","NGL","jitter1","jitter2","RT","outcomefeed","condition","session","response","GoResponse","Cue","req_action","correct","trial_number","block","TrialCount","feedback","OutValence","salient"
"1","BNVN0020",4,4,1,2,3,3412,990,0,0,"a.sham","1","no_press",0,"GW","Go",0,1,"1",1,"neutral","Win",NA
"2","BNVN0020",1,4,1,2,3,1824,777,549,0,"a.sham","1","press",1,"GAL","Go",1,2,"1",1,"neutral","Avoid",NA
"3","BNVN0020",2,4,1,2,3,1942,696,626,0,"a.sham","1","press",1,"NGW","noGo",0,3,"1",1,"neutral","Win",NA
"4","BNVN0020",4,4,1,2,3,2253,891,0,0,"a.sham","1","no_press",0,"GW","Go",0,4,"1",2,"neutral","Win",NA
"5","BNVN0020",1,4,1,2,3,2503,673,615,0,"a.sham","1","press",1,"GAL","Go",1,5,"1",2,"neutral","Avoid",NA
"6","BNVN0020",1,4,1,2,3,2272,697,559,0,"a.sham","1","press",1,"GAL","Go",1,6,"1",3,"neutral","Avoid",NA
"7","BNVN0020",1,4,1,2,3,1795,991,512,0,"a.sham","1","press",1,"GAL","Go",1,7,"1",4,"neutral","Avoid",NA
"8","BNVN0020",1,4,1,2,3,1000,545,601,0,"a.sham","1","press",1,"GAL","Go",1,8,"1",5,"neutral","Avoid",NA
"9","BNVN0020",1,4,1,2,3,2404,683,0,0,"a.sham","1","no_press",0,"GAL","Go",0,9,"1",6,"neutral","Avoid",NA
"10","BNVN0020",3,4,1,2,3,1326,561,751,-1,"a.sham","1","press",1,"NGL","noGo",0,10,"1",1,"lose","Avoid","lose"
"11","BNVN0020",1,4,1,2,3,2538,934,707,0,"a.sham","1","press",1,"GAL","Go",1,11,"1",7,"neutral","Avoid",NA
"12","BNVN0020",3,4,1,2,3,1690,763,469,-1,"a.sham","1","press",1,"NGL","noGo",0,12,"1",2,"lose","Avoid","lose"
"13","BNVN0020",3,4,1,2,3,2930,914,681,-1,"a.sham","1","press",1,"NGL","noGo",0,13,"1",3,"lose","Avoid","lose"
"14","BNVN0020",1,4,1,2,3,2184,602,1103,0,"a.sham","1","press",1,"GAL","Go",1,14,"1",8,"neutral","Avoid",NA
"15","BNVN0020",2,4,1,2,3,1780,551,1321,0,"a.sham","1","press",1,"NGW","noGo",0,15,"1",2,"neutral","Win",NA
"16","BNVN0020",3,4,1,2,3,2547,691,0,0,"a.sham","1","no_press",0,"NGL","noGo",1,16,"1",4,"neutral","Avoid",NA
"17","BNVN0020",3,4,1,2,3,2149,778,0,0,"a.sham","1","no_press",0,"NGL","noGo",1,17,"1",5,"neutral","Avoid",NA
"18","BNVN0020",1,4,1,2,3,1338,918,0,0,"a.sham","1","no_press",0,"GAL","Go",0,18,"1",9,"neutral","Avoid",NA
"19","BNVN0020",4,4,1,2,3,2224,608,680,1,"a.sham","1","press",1,"GW","Go",1,19,"1",3,"win","Win","win"
"20","BNVN0020",1,4,1,2,3,1795,875,681,0,"a.sham","1","press",1,"GAL","Go",1,20,"1",10,"neutral","Avoid",NA
"21","BNVN0020",2,4,1,2,3,2785,798,0,1,"a.sham","1","no_press",0,"NGW","noGo",1,21,"1",3,"win","Win","win"
"22","BNVN0020",2,4,1,2,3,2615,600,0,1,"a.sham","1","no_press",0,"NGW","noGo",1,22,"1",4,"win","Win","win"
"23","BNVN0020",4,4,1,2,3,1249,755,0,0,"a.sham","1","no_press",0,"GW","Go",0,23,"1",4,"neutral","Win",NA
"24","BNVN0020",1,4,1,2,3,1407,672,1220,0,"a.sham","1","press",1,"GAL","Go",1,24,"1",11,"neutral","Avoid",NA
"25","BNVN0020",4,4,1,2,3,1598,752,0,0,"a.sham","1","no_press",0,"GW","Go",0,25,"1",5,"neutral","Win",NA
"26","BNVN0020",2,4,1,2,3,1709,966,0,1,"a.sham","1","no_press",0,"NGW","noGo",1,26,"1",5,"win","Win","win"
"27","BNVN0020",4,4,1,2,3,2066,743,0,0,"a.sham","1","no_press",0,"GW","Go",0,27,"1",6,"neutral","Win",NA
"28","BNVN0020",1,4,1,2,3,1166,953,1495,0,"a.sham","1","press",1,"GAL","Go",1,28,"1",12,"neutral","Avoid",NA
"29","BNVN0020",3,4,1,2,3,1458,862,0,0,"a.sham","1","no_press",0,"NGL","noGo",1,29,"1",6,"neutral","Avoid",NA
"30","BNVN0020",2,4,1,2,3,2103,956,0,1,"a.sham","1","no_press",0,"NGW","noGo",1,30,"1",6,"win","Win","win"
"31","BNVN0020",2,4,1,2,3,1608,999,0,1,"a.sham","1","no_press",0,"NGW","noGo",1,31,"1",7,"win","Win","win"
"32","BNVN0020",4,4,1,2,3,1598,939,0,0,"a.sham","1","no_press",0,"GW","Go",0,32,"1",7,"neutral","Win",NA
"33","BNVN0020",3,4,1,2,3,1784,641,0,0,"a.sham","1","no_press",0,"NGL","noGo",1,33,"1",7,"neutral","Avoid",NA
"34","BNVN0020",3,4,1,2,3,1484,895,0,-1,"a.sham","1","no_press",0,"NGL","noGo",1,34,"1",8,"lose","Avoid","lose"
"35","BNVN0020",2,4,1,2,3,1715,641,0,1,"a.sham","1","no_press",0,"NGW","noGo",1,35,"1",8,"win","Win","win"
"36","BNVN0020",4,4,1,2,3,2386,868,0,0,"a.sham","1","no_press",0,"GW","Go",0,36,"1",8,"neutral","Win",NA
"37","BNVN0020",4,4,1,2,3,2288,864,844,0,"a.sham","1","press",1,"GW","Go",1,37,"1",9,"neutral","Win",NA
"38","BNVN0020",3,4,1,2,3,2663,737,1238,-1,"a.sham","1","press",1,"NGL","noGo",0,38,"1",9,"lose","Avoid","lose"
"39","BNVN0020",1,4,1,2,3,2822,656,431,0,"a.sham","1","press",1,"GAL","Go",1,39,"1",13,"neutral","Avoid",NA
"40","BNVN0020",2,4,1,2,3,1889,818,0,1,"a.sham","1","no_press",0,"NGW","noGo",1,40,"1",9,"win","Win","win"
"41","BNVN0020",2,4,1,2,3,1364,791,0,1,"a.sham","1","no_press",0,"NGW","noGo",1,41,"1",10,"win","Win","win"
"42","BNVN0020",3,4,1,2,3,2318,546,0,-1,"a.sham","1","no_press",0,"NGL","noGo",1,42,"1",10,"lose","Avoid","lose"
"43","BNVN0020",3,4,1,2,3,1752,758,657,-1,"a.sham","1","press",1,"NGL","noGo",0,43,"1",11,"lose","Avoid","lose"
"44","BNVN0020",4,4,1,2,3,2664,887,1052,1,"a.sham","1","press",1,"GW","Go",1,44,"1",10,"win","Win","win"
"45","BNVN0020",2,4,1,2,3,1779,791,0,1,"a.sham","1","no_press",0,"NGW","noGo",1,45,"1",11,"win","Win","win"
"46","BNVN0020",1,4,1,2,3,1463,905,0,-1,"a.sham","1","no_press",0,"GAL","Go",0,46,"1",14,"lose","Avoid","lose"
"47","BNVN0020",2,4,1,2,3,2664,630,0,1,"a.sham","1","no_press",0,"NGW","noGo",1,47,"1",12,"win","Win","win"
"48","BNVN0020",3,4,1,2,3,1842,645,1055,0,"a.sham","1","press",1,"NGL","noGo",0,48,"1",12,"neutral","Avoid",NA
"49","BNVN0020",3,4,1,2,3,2349,798,519,-1,"a.sham","1","press",1,"NGL","noGo",0,49,"1",13,"lose","Avoid","lose"
"50","BNVN0020",2,4,1,2,3,1246,952,0,0,"a.sham","1","no_press",0,"NGW","noGo",1,50,"1",13,"neutral","Win",NA
"51","BNVN0020",3,4,1,2,3,2131,692,0,0,"a.sham","1","no_press",0,"NGL","noGo",1,51,"1",14,"neutral","Avoid",NA
"52","BNVN0020",3,4,1,2,3,2008,861,0,0,"a.sham","1","no_press",0,"NGL","noGo",1,52,"1",15,"neutral","Avoid",NA
"53","BNVN0020",1,4,1,2,3,1511,531,0,-1,"a.sham","1","no_press",0,"GAL","Go",0,53,"1",15,"lose","Avoid","lose"
"54","BNVN0020",1,4,1,2,3,2266,783,910,-1,"a.sham","1","press",1,"GAL","Go",1,54,"1",16,"lose","Avoid","lose"
"55","BNVN0020",4,4,1,2,3,1938,538,968,1,"a.sham","1","press",1,"GW","Go",1,55,"1",11,"win","Win","win"
"56","BNVN0020",3,4,1,2,3,1597,602,0,0,"a.sham","1","no_press",0,"NGL","noGo",1,56,"1",16,"neutral","Avoid",NA
"57","BNVN0020",4,4,1,2,3,1954,549,1356,1,"a.sham","1","press",1,"GW","Go",1,57,"1",12,"win","Win","win"
"58","BNVN0020",2,4,1,2,3,1575,891,0,1,"a.sham","1","no_press",0,"NGW","noGo",1,58,"1",14,"win","Win","win"
"59","BNVN0020",2,4,1,2,3,2650,932,0,1,"a.sham","1","no_press",0,"NGW","noGo",1,59,"1",15,"win","Win","win"
"60","BNVN0020",4,4,1,2,3,2132,951,895,0,"a.sham","1","press",1,"GW","Go",1,60,"1",13,"neutral","Win",NA
"61","BNVN0020",3,4,1,2,3,1559,632,0,0,"a.sham","1","no_press",0,"NGL","noGo",1,61,"1",17,"neutral","Avoid",NA
"62","BNVN0020",2,4,1,2,3,2315,865,0,0,"a.sham","1","no_press",0,"NGW","noGo",1,62,"1",16,"neutral","Win",NA
"63","BNVN0020",1,4,1,2,3,1861,577,0,-1,"a.sham","1","no_press",0,"GAL","Go",0,63,"1",17,"lose","Avoid","lose"
"64","BNVN0020",2,4,1,2,3,2116,673,0,1,"a.sham","1","no_press",0,"NGW","noGo",1,64,"1",17,"win","Win","win"
"65","BNVN0020",1,4,1,2,3,2493,788,468,0,"a.sham","1","press",1,"GAL","Go",1,65,"1",18,"neutral","Avoid",NA
"66","BNVN0020",4,4,1,2,3,2701,870,783,0,"a.sham","1","press",1,"GW","Go",1,66,"1",14,"neutral","Win",NA
"67","BNVN0020",3,4,1,2,3,3029,748,0,0,"a.sham","1","no_press",0,"NGL","noGo",1,67,"1",18,"neutral","Avoid",NA
"68","BNVN0020",4,4,1,2,3,1729,610,724,1,"a.sham","1","press",1,"GW","Go",1,68,"1",15,"win","Win","win"
"69","BNVN0020",3,4,1,2,3,2029,839,0,0,"a.sham","1","no_press",0,"NGL","noGo",1,69,"1",19,"neutral","Avoid",NA
"70","BNVN0020",4,4,1,2,3,2262,829,688,0,"a.sham","1","press",1,"GW","Go",1,70,"1",16,"neutral","Win",NA
"71","BNVN0020",1,4,1,2,3,1992,526,544,0,"a.sham","1","press",1,"GAL","Go",1,71,"1",19,"neutral","Avoid",NA
"72","BNVN0020",2,4,1,2,3,1434,803,0,0,"a.sham","1","no_press",0,"NGW","noGo",1,72,"1",18,"neutral","Win",NA
"73","BNVN0020",4,4,1,2,3,1289,790,656,1,"a.sham","1","press",1,"GW","Go",1,73,"1",17,"win","Win","win"
"74","BNVN0020",1,4,1,2,3,2087,623,734,0,"a.sham","1","press",1,"GAL","Go",1,74,"1",20,"neutral","Avoid",NA
"75","BNVN0020",2,4,1,2,3,2103,595,0,0,"a.sham","1","no_press",0,"NGW","noGo",1,75,"1",19,"neutral","Win",NA
"76","BNVN0020",4,4,1,2,3,2121,936,581,1,"a.sham","1","press",1,"GW","Go",1,76,"1",18,"win","Win","win"
"77","BNVN0020",4,4,1,2,3,1851,777,762,1,"a.sham","1","press",1,"GW","Go",1,77,"1",19,"win","Win","win"
"78","BNVN0020",2,4,1,2,3,1959,802,479,0,"a.sham","1","press",1,"NGW","noGo",0,78,"1",20,"neutral","Win",NA
"79","BNVN0020",4,4,1,2,3,3385,823,837,1,"a.sham","1","press",1,"GW","Go",1,79,"1",20,"win","Win","win"
"80","BNVN0020",3,4,1,2,3,1883,502,0,-1,"a.sham","1","no_press",0,"NGL","noGo",1,80,"1",20,"lose","Avoid","lose"
"81","BNVN0020",6,6,7,8,5,1465,843,1397,1,"a.sham","1","press",1,"GW","Go",1,81,"2",1,"win","Win","win"
"82","BNVN0020",5,6,7,8,5,1456,711,812,-1,"a.sham","1","press",1,"NGL","noGo",0,82,"2",1,"lose","Avoid","lose"
"83","BNVN0020",8,6,7,8,5,2700,519,850,0,"a.sham","1","press",1,"NGW","noGo",0,83,"2",1,"neutral","Win",NA
"84","BNVN0020",5,6,7,8,5,1505,945,0,0,"a.sham","1","no_press",0,"NGL","noGo",1,84,"2",2,"neutral","Avoid",NA
"85","BNVN0020",7,6,7,8,5,2252,511,1067,0,"a.sham","1","press",1,"GAL","Go",1,85,"2",1,"neutral","Avoid",NA
"86","BNVN0020",7,6,7,8,5,1495,528,776,0,"a.sham","1","press",1,"GAL","Go",1,86,"2",2,"neutral","Avoid",NA
"87","BNVN0020",5,6,7,8,5,2018,879,0,0,"a.sham","1","no_press",0,"NGL","noGo",1,87,"2",3,"neutral","Avoid",NA
"88","BNVN0020",6,6,7,8,5,1403,831,542,0,"a.sham","1","press",1,"GW","Go",1,88,"2",2,"neutral","Win",NA
"89","BNVN0020",5,6,7,8,5,2143,942,0,0,"a.sham","1","no_press",0,"NGL","noGo",1,89,"2",4,"neutral","Avoid",NA
"90","BNVN0020",8,6,7,8,5,1433,553,796,0,"a.sham","1","press",1,"NGW","noGo",0,90,"2",2,"neutral","Win",NA
"91","BNVN0020",5,6,7,8,5,1963,892,0,0,"a.sham","1","no_press",0,"NGL","noGo",1,91,"2",5,"neutral","Avoid",NA
"92","BNVN0020",8,6,7,8,5,1890,541,0,1,"a.sham","1","no_press",0,"NGW","noGo",1,92,"2",3,"win","Win","win"
"93","BNVN0020",6,6,7,8,5,2254,876,1351,1,"a.sham","1","press",1,"GW","Go",1,93,"2",3,"win","Win","win"
"94","BNVN0020",6,6,7,8,5,2306,927,937,1,"a.sham","1","press",1,"GW","Go",1,94,"2",4,"win","Win","win"
"95","BNVN0020",5,6,7,8,5,1671,969,0,0,"a.sham","1","no_press",0,"NGL","noGo",1,95,"2",6,"neutral","Avoid",NA
"96","BNVN0020",6,6,7,8,5,1927,736,465,1,"a.sham","1","press",1,"GW","Go",1,96,"2",5,"win","Win","win"
"97","BNVN0020",8,6,7,8,5,1966,998,1063,0,"a.sham","1","press",1,"NGW","noGo",0,97,"2",4,"neutral","Win",NA
"98","BNVN0020",7,6,7,8,5,1936,808,0,-1,"a.sham","1","no_press",0,"GAL","Go",0,98,"2",3,"lose","Avoid","lose"
"99","BNVN0020",8,6,7,8,5,1723,638,0,1,"a.sham","1","no_press",0,"NGW","noGo",1,99,"2",5,"win","Win","win"
"100","BNVN0020",8,6,7,8,5,1702,753,0,1,"a.sham","1","no_press",0,"NGW","noGo",1,100,"2",6,"win","Win","win"
"101","BNVN0020",7,6,7,8,5,1250,984,690,-1,"a.sham","1","press",1,"GAL","Go",1,101,"2",4,"lose","Avoid","lose"
"102","BNVN0020",7,6,7,8,5,2510,706,0,-1,"a.sham","1","no_press",0,"GAL","Go",0,102,"2",5,"lose","Avoid","lose"
"103","BNVN0020",6,6,7,8,5,1885,570,711,1,"a.sham","1","press",1,"GW","Go",1,103,"2",6,"win","Win","win"
"104","BNVN0020",8,6,7,8,5,1845,729,0,0,"a.sham","1","no_press",0,"NGW","noGo",1,104,"2",7,"neutral","Win",NA
"105","BNVN0020",5,6,7,8,5,1000,713,0,0,"a.sham","1","no_press",0,"NGL","noGo",1,105,"2",7,"neutral","Avoid",NA
"106","BNVN0020",7,6,7,8,5,1655,934,942,0,"a.sham","1","press",1,"GAL","Go",1,106,"2",6,"neutral","Avoid",NA
"107","BNVN0020",5,6,7,8,5,1453,818,0,0,"a.sham","1","no_press",0,"NGL","noGo",1,107,"2",8,"neutral","Avoid",NA
"108","BNVN0020",8,6,7,8,5,3128,629,0,0,"a.sham","1","no_press",0,"NGW","noGo",1,108,"2",8,"neutral","Win",NA
"109","BNVN0020",5,6,7,8,5,1504,564,0,0,"a.sham","1","no_press",0,"NGL","noGo",1,109,"2",9,"neutral","Avoid",NA
"110","BNVN0020",6,6,7,8,5,1736,631,690,1,"a.sham","1","press",1,"GW","Go",1,110,"2",7,"win","Win","win"
"111","BNVN0020",5,6,7,8,5,2964,500,0,0,"a.sham","1","no_press",0,"NGL","noGo",1,111,"2",10,"neutral","Avoid",NA
"112","BNVN0020",8,6,7,8,5,2318,885,0,1,"a.sham","1","no_press",0,"NGW","noGo",1,112,"2",9,"win","Win","win"
"113","BNVN0020",5,6,7,8,5,2724,596,0,0,"a.sham","1","no_press",0,"NGL","noGo",1,113,"2",11,"neutral","Avoid",NA
"114","BNVN0020",5,6,7,8,5,1921,850,0,0,"a.sham","1","no_press",0,"NGL","noGo",1,114,"2",12,"neutral","Avoid",NA
"115","BNVN0020",5,6,7,8,5,1622,524,1015,-1,"a.sham","1","press",1,"NGL","noGo",0,115,"2",13,"lose","Avoid","lose"
"116","BNVN0020",8,6,7,8,5,2549,936,0,1,"a.sham","1","no_press",0,"NGW","noGo",1,116,"2",10,"win","Win","win"
"117","BNVN0020",5,6,7,8,5,1575,977,0,-1,"a.sham","1","no_press",0,"NGL","noGo",1,117,"2",14,"lose","Avoid","lose"
"118","BNVN0020",7,6,7,8,5,2388,633,1003,0,"a.sham","1","press",1,"GAL","Go",1,118,"2",7,"neutral","Avoid",NA
"119","BNVN0020",7,6,7,8,5,1552,570,0,0,"a.sham","1","no_press",0,"GAL","Go",0,119,"2",8,"neutral","Avoid",NA
"120","BNVN0020",6,6,7,8,5,2548,550,699,1,"a.sham","1","press",1,"GW","Go",1,120,"2",8,"win","Win","win"
"121","BNVN0020",7,6,7,8,5,2299,900,740,0,"a.sham","1","press",1,"GAL","Go",1,121,"2",9,"neutral","Avoid",NA
"122","BNVN0020",6,6,7,8,5,1932,777,639,0,"a.sham","1","press",1,"GW","Go",1,122,"2",9,"neutral","Win",NA
"123","BNVN0020",7,6,7,8,5,1000,941,710,0,"a.sham","1","press",1,"GAL","Go",1,123,"2",10,"neutral","Avoid",NA
"124","BNVN0020",6,6,7,8,5,2745,720,629,1,"a.sham","1","press",1,"GW","Go",1,124,"2",10,"win","Win","win"
"125","BNVN0020",8,6,7,8,5,2274,923,0,0,"a.sham","1","no_press",0,"NGW","noGo",1,125,"2",11,"neutral","Win",NA
"126","BNVN0020",7,6,7,8,5,2251,629,0,-1,"a.sham","1","no_press",0,"GAL","Go",0,126,"2",11,"lose","Avoid","lose"
"127","BNVN0020",7,6,7,8,5,2206,543,691,0,"a.sham","1","press",1,"GAL","Go",1,127,"2",12,"neutral","Avoid",NA
"128","BNVN0020",8,6,7,8,5,1182,521,683,0,"a.sham","1","press",1,"NGW","noGo",0,128,"2",12,"neutral","Win",NA
"129","BNVN0020",7,6,7,8,5,2817,605,801,-1,"a.sham","1","press",1,"GAL","Go",1,129,"2",13,"lose","Avoid","lose"
"130","BNVN0020",8,6,7,8,5,2184,966,0,1,"a.sham","1","no_press",0,"NGW","noGo",1,130,"2",13,"win","Win","win"
"131","BNVN0020",5,6,7,8,5,2036,701,0,-1,"a.sham","1","no_press",0,"NGL","noGo",1,131,"2",15,"lose","Avoid","lose"
"132","BNVN0020",6,6,7,8,5,1939,580,700,1,"a.sham","1","press",1,"GW","Go",1,132,"2",11,"win","Win","win"
"133","BNVN0020",7,6,7,8,5,2218,670,0,-1,"a.sham","1","no_press",0,"GAL","Go",0,133,"2",14,"lose","Avoid","lose"
"134","BNVN0020",7,6,7,8,5,1678,557,674,0,"a.sham","1","press",1,"GAL","Go",1,134,"2",15,"neutral","Avoid",NA
"135","BNVN0020",7,6,7,8,5,2907,951,1010,0,"a.sham","1","press",1,"GAL","Go",1,135,"2",16,"neutral","Avoid",NA
"136","BNVN0020",5,6,7,8,5,2171,651,0,0,"a.sham","1","no_press",0,"NGL","noGo",1,136,"2",16,"neutral","Avoid",NA
"137","BNVN0020",6,6,7,8,5,1547,952,539,1,"a.sham","1","press",1,"GW","Go",1,137,"2",12,"win","Win","win"
"138","BNVN0020",7,6,7,8,5,1445,795,0,-1,"a.sham","1","no_press",0,"GAL","Go",0,138,"2",17,"lose","Avoid","lose"
"139","BNVN0020",5,6,7,8,5,2415,626,0,0,"a.sham","1","no_press",0,"NGL","noGo",1,139,"2",17,"neutral","Avoid",NA
"140","BNVN0020",8,6,7,8,5,2212,794,0,1,"a.sham","1","no_press",0,"NGW","noGo",1,140,"2",14,"win","Win","win"
"141","BNVN0020",8,6,7,8,5,2887,937,0,1,"a.sham","1","no_press",0,"NGW","noGo",1,141,"2",15,"win","Win","win"
"142","BNVN0020",5,6,7,8,5,1281,530,0,0,"a.sham","1","no_press",0,"NGL","noGo",1,142,"2",18,"neutral","Avoid",NA
"143","BNVN0020",8,6,7,8,5,2074,781,0,1,"a.sham","1","no_press",0,"NGW","noGo",1,143,"2",16,"win","Win","win"
"144","BNVN0020",6,6,7,8,5,2272,782,722,0,"a.sham","1","press",1,"GW","Go",1,144,"2",13,"neutral","Win",NA
"145","BNVN0020",7,6,7,8,5,1133,743,728,0,"a.sham","1","press",1,"GAL","Go",1,145,"2",18,"neutral","Avoid",NA
"146","BNVN0020",6,6,7,8,5,1576,908,766,1,"a.sham","1","press",1,"GW","Go",1,146,"2",14,"win","Win","win"
"147","BNVN0020",8,6,7,8,5,2467,966,0,1,"a.sham","1","no_press",0,"NGW","noGo",1,147,"2",17,"win","Win","win"
"148","BNVN0020",8,6,7,8,5,2096,720,0,1,"a.sham","1","no_press",0,"NGW","noGo",1,148,"2",18,"win","Win","win"
"149","BNVN0020",8,6,7,8,5,1951,602,0,0,"a.sham","1","no_press",0,"NGW","noGo",1,149,"2",19,"neutral","Win",NA
"150","BNVN0020",8,6,7,8,5,1468,822,0,1,"a.sham","1","no_press",0,"NGW","noGo",1,150,"2",20,"win","Win","win"
"151","BNVN0020",7,6,7,8,5,1948,675,999,-1,"a.sham","1","press",1,"GAL","Go",1,151,"2",19,"lose","Avoid","lose"
"152","BNVN0020",6,6,7,8,5,2088,606,804,1,"a.sham","1","press",1,"GW","Go",1,152,"2",15,"win","Win","win"
"153","BNVN0020",6,6,7,8,5,2528,625,657,1,"a.sham","1","press",1,"GW","Go",1,153,"2",16,"win","Win","win"
"154","BNVN0020",6,6,7,8,5,1990,770,700,1,"a.sham","1","press",1,"GW","Go",1,154,"2",17,"win","Win","win"
"155","BNVN0020",6,6,7,8,5,1674,626,926,0,"a.sham","1","press",1,"GW","Go",1,155,"2",18,"neutral","Win",NA
"156","BNVN0020",6,6,7,8,5,3323,879,822,1,"a.sham","1","press",1,"GW","Go",1,156,"2",19,"win","Win","win"
"157","BNVN0020",6,6,7,8,5,2380,574,533,1,"a.sham","1","press",1,"GW","Go",1,157,"2",20,"win","Win","win"
"158","BNVN0020",7,6,7,8,5,1922,770,693,0,"a.sham","1","press",1,"GAL","Go",1,158,"2",20,"neutral","Avoid",NA
"159","BNVN0020",5,6,7,8,5,2099,880,0,0,"a.sham","1","no_press",0,"NGL","noGo",1,159,"2",19,"neutral","Avoid",NA
"160","BNVN0020",5,6,7,8,5,1518,818,0,-1,"a.sham","1","no_press",0,"NGL","noGo",1,160,"2",20,"lose","Avoid","lose"
"161","BNVN0020",10,10,11,12,9,1509,760,1052,1,"a.sham","1","press",1,"GW","Go",1,161,"3",1,"win","Win","win"
"162","BNVN0020",12,10,11,12,9,2359,719,0,1,"a.sham","1","no_press",0,"NGW","noGo",1,162,"3",1,"win","Win","win"
"163","BNVN0020",9,10,11,12,9,2478,530,0,0,"a.sham","1","no_press",0,"NGL","noGo",1,163,"3",1,"neutral","Avoid",NA
"164","BNVN0020",11,10,11,12,9,1703,725,893,-1,"a.sham","1","press",1,"GAL","Go",1,164,"3",1,"lose","Avoid","lose"
"165","BNVN0020",9,10,11,12,9,2045,958,0,0,"a.sham","1","no_press",0,"NGL","noGo",1,165,"3",2,"neutral","Avoid",NA
"166","BNVN0020",11,10,11,12,9,1746,671,0,0,"a.sham","1","no_press",0,"GAL","Go",0,166,"3",2,"neutral","Avoid",NA
"167","BNVN0020",11,10,11,12,9,1187,886,0,-1,"a.sham","1","no_press",0,"GAL","Go",0,167,"3",3,"lose","Avoid","lose"
"168","BNVN0020",10,10,11,12,9,2152,605,923,1,"a.sham","1","press",1,"GW","Go",1,168,"3",2,"win","Win","win"
"169","BNVN0020",12,10,11,12,9,1826,585,0,1,"a.sham","1","no_press",0,"NGW","noGo",1,169,"3",2,"win","Win","win"
"170","BNVN0020",12,10,11,12,9,2481,684,0,1,"a.sham","1","no_press",0,"NGW","noGo",1,170,"3",3,"win","Win","win"
"171","BNVN0020",9,10,11,12,9,1717,781,0,0,"a.sham","1","no_press",0,"NGL","noGo",1,171,"3",3,"neutral","Avoid",NA
"172","BNVN0020",9,10,11,12,9,1304,822,0,0,"a.sham","1","no_press",0,"NGL","noGo",1,172,"3",4,"neutral","Avoid",NA
"173","BNVN0020",12,10,11,12,9,1787,519,0,1,"a.sham","1","no_press",0,"NGW","noGo",1,173,"3",4,"win","Win","win"
"174","BNVN0020",11,10,11,12,9,2122,730,0,0,"a.sham","1","no_press",0,"GAL","Go",0,174,"3",4,"neutral","Avoid",NA
"175","BNVN0020",12,10,11,12,9,1908,526,0,1,"a.sham","1","no_press",0,"NGW","noGo",1,175,"3",5,"win","Win","win"
"176","BNVN0020",11,10,11,12,9,2719,894,0,-1,"a.sham","1","no_press",0,"GAL","Go",0,176,"3",5,"lose","Avoid","lose"
"177","BNVN0020",10,10,11,12,9,2538,982,1395,0,"a.sham","1","press",1,"GW","Go",1,177,"3",3,"neutral","Win",NA
"178","BNVN0020",11,10,11,12,9,1788,811,1422,0,"a.sham","1","press",1,"GAL","Go",1,178,"3",6,"neutral","Avoid",NA
"179","BNVN0020",12,10,11,12,9,2745,525,0,0,"a.sham","1","no_press",0,"NGW","noGo",1,179,"3",6,"neutral","Win",NA
"180","BNVN0020",11,10,11,12,9,1807,881,0,-1,"a.sham","1","no_press",0,"GAL","Go",0,180,"3",7,"lose","Avoid","lose"
"181","BNVN0020",12,10,11,12,9,3876,758,0,1,"a.sham","1","no_press",0,"NGW","noGo",1,181,"3",7,"win","Win","win"
"182","BNVN0020",9,10,11,12,9,1615,939,0,0,"a.sham","1","no_press",0,"NGL","noGo",1,182,"3",5,"neutral","Avoid",NA
"183","BNVN0020",11,10,11,12,9,2451,933,1156,-1,"a.sham","1","press",1,"GAL","Go",1,183,"3",8,"lose","Avoid","lose"
"184","BNVN0020",10,10,11,12,9,1894,800,820,1,"a.sham","1","press",1,"GW","Go",1,184,"3",4,"win","Win","win"
"185","BNVN0020",10,10,11,12,9,2571,730,907,1,"a.sham","1","press",1,"GW","Go",1,185,"3",5,"win","Win","win"
"186","BNVN0020",10,10,11,12,9,2004,581,764,1,"a.sham","1","press",1,"GW","Go",1,186,"3",6,"win","Win","win"
"187","BNVN0020",9,10,11,12,9,2336,656,0,0,"a.sham","1","no_press",0,"NGL","noGo",1,187,"3",6,"neutral","Avoid",NA
"188","BNVN0020",9,10,11,12,9,1565,978,0,-1,"a.sham","1","no_press",0,"NGL","noGo",1,188,"3",7,"lose","Avoid","lose"
"189","BNVN0020",9,10,11,12,9,1678,817,0,0,"a.sham","1","no_press",0,"NGL","noGo",1,189,"3",8,"neutral","Avoid",NA
"190","BNVN0020",11,10,11,12,9,2337,933,0,-1,"a.sham","1","no_press",0,"GAL","Go",0,190,"3",9,"lose","Avoid","lose"
"191","BNVN0020",10,10,11,12,9,1620,572,676,1,"a.sham","1","press",1,"GW","Go",1,191,"3",7,"win","Win","win"
"192","BNVN0020",12,10,11,12,9,1725,761,0,0,"a.sham","1","no_press",0,"NGW","noGo",1,192,"3",8,"neutral","Win",NA
"193","BNVN0020",9,10,11,12,9,1937,951,0,0,"a.sham","1","no_press",0,"NGL","noGo",1,193,"3",9,"neutral","Avoid",NA
"194","BNVN0020",10,10,11,12,9,1432,736,545,0,"a.sham","1","press",1,"GW","Go",1,194,"3",8,"neutral","Win",NA
"195","BNVN0020",10,10,11,12,9,2518,680,711,1,"a.sham","1","press",1,"GW","Go",1,195,"3",9,"win","Win","win"
"196","BNVN0020",11,10,11,12,9,1721,909,857,0,"a.sham","1","press",1,"GAL","Go",1,196,"3",10,"neutral","Avoid",NA
"197","BNVN0020",11,10,11,12,9,1249,820,831,0,"a.sham","1","press",1,"GAL","Go",1,197,"3",11,"neutral","Avoid",NA
"198","BNVN0020",12,10,11,12,9,2273,779,0,1,"a.sham","1","no_press",0,"NGW","noGo",1,198,"3",9,"win","Win","win"
"199","BNVN0020",11,10,11,12,9,1967,562,936,0,"a.sham","1","press",1,"GAL","Go",1,199,"3",12,"neutral","Avoid",NA
"200","BNVN0020",10,10,11,12,9,1987,908,451,0,"a.sham","1","press",1,"GW","Go",1,200,"3",10,"neutral","Win",NA
"201","BNVN0020",11,10,11,12,9,1888,901,705,0,"a.sham","1","press",1,"GAL","Go",1,201,"3",13,"neutral","Avoid",NA
"202","BNVN0020",10,10,11,12,9,1688,664,679,1,"a.sham","1","press",1,"GW","Go",1,202,"3",11,"win","Win","win"
"203","BNVN0020",10,10,11,12,9,2131,902,691,1,"a.sham","1","press",1,"GW","Go",1,203,"3",12,"win","Win","win"
"204","BNVN0020",12,10,11,12,9,2444,519,0,1,"a.sham","1","no_press",0,"NGW","noGo",1,204,"3",10,"win","Win","win"
"205","BNVN0020",12,10,11,12,9,1879,994,0,0,"a.sham","1","no_press",0,"NGW","noGo",1,205,"3",11,"neutral","Win",NA
"206","BNVN0020",10,10,11,12,9,2185,780,777,1,"a.sham","1","press",1,"GW","Go",1,206,"3",13,"win","Win","win"
"207","BNVN0020",10,10,11,12,9,2557,602,769,1,"a.sham","1","press",1,"GW","Go",1,207,"3",14,"win","Win","win"
"208","BNVN0020",11,10,11,12,9,3158,508,852,0,"a.sham","1","press",1,"GAL","Go",1,208,"3",14,"neutral","Avoid",NA
"209","BNVN0020",12,10,11,12,9,1000,613,0,1,"a.sham","1","no_press",0,"NGW","noGo",1,209,"3",12,"win","Win","win"
"210","BNVN0020",12,10,11,12,9,3020,598,0,1,"a.sham","1","no_press",0,"NGW","noGo",1,210,"3",13,"win","Win","win"
"211","BNVN0020",10,10,11,12,9,2029,514,696,1,"a.sham","1","press",1,"GW","Go",1,211,"3",15,"win","Win","win"
"212","BNVN0020",12,10,11,12,9,2335,704,0,1,"a.sham","1","no_press",0,"NGW","noGo",1,212,"3",14,"win","Win","win"
"213","BNVN0020",10,10,11,12,9,2381,644,0,0,"a.sham","1","no_press",0,"GW","Go",0,213,"3",16,"neutral","Win",NA
"214","BNVN0020",12,10,11,12,9,1639,990,0,1,"a.sham","1","no_press",0,"NGW","noGo",1,214,"3",15,"win","Win","win"
"215","BNVN0020",9,10,11,12,9,1761,628,0,-1,"a.sham","1","no_press",0,"NGL","noGo",1,215,"3",10,"lose","Avoid","lose"
"216","BNVN0020",9,10,11,12,9,2010,759,674,-1,"a.sham","1","press",1,"NGL","noGo",0,216,"3",11,"lose","Avoid","lose"
"217","BNVN0020",12,10,11,12,9,2299,897,0,0,"a.sham","1","no_press",0,"NGW","noGo",1,217,"3",16,"neutral","Win",NA
"218","BNVN0020",12,10,11,12,9,1820,578,0,1,"a.sham","1","no_press",0,"NGW","noGo",1,218,"3",17,"win","Win","win"
"219","BNVN0020",12,10,11,12,9,2942,997,0,1,"a.sham","1","no_press",0,"NGW","noGo",1,219,"3",18,"win","Win","win"
"220","BNVN0020",10,10,11,12,9,2547,957,985,1,"a.sham","1","press",1,"GW","Go",1,220,"3",17,"win","Win","win"
"221","BNVN0020",9,10,11,12,9,2330,748,759,-1,"a.sham","1","press",1,"NGL","noGo",0,221,"3",12,"lose","Avoid","lose"
"222","BNVN0020",9,10,11,12,9,2601,935,0,-1,"a.sham","1","no_press",0,"NGL","noGo",1,222,"3",13,"lose","Avoid","lose"
"223","BNVN0020",10,10,11,12,9,1635,931,564,1,"a.sham","1","press",1,"GW","Go",1,223,"3",18,"win","Win","win"
"224","BNVN0020",11,10,11,12,9,2107,974,952,0,"a.sham","1","press",1,"GAL","Go",1,224,"3",15,"neutral","Avoid",NA
"225","BNVN0020",9,10,11,12,9,1509,648,646,-1,"a.sham","1","press",1,"NGL","noGo",0,225,"3",14,"lose","Avoid","lose"
"226","BNVN0020",12,10,11,12,9,5000,839,0,1,"a.sham","1","no_press",0,"NGW","noGo",1,226,"3",19,"win","Win","win"
"227","BNVN0020",12,10,11,12,9,2234,989,0,1,"a.sham","1","no_press",0,"NGW","noGo",1,227,"3",20,"win","Win","win"
"228","BNVN0020",9,10,11,12,9,1547,585,0,0,"a.sham","1","no_press",0,"NGL","noGo",1,228,"3",15,"neutral","Avoid",NA
"229","BNVN0020",9,10,11,12,9,2315,774,0,0,"a.sham","1","no_press",0,"NGL","noGo",1,229,"3",16,"neutral","Avoid",NA
"230","BNVN0020",9,10,11,12,9,2164,622,0,0,"a.sham","1","no_press",0,"NGL","noGo",1,230,"3",17,"neutral","Avoid",NA
"231","BNVN0020",11,10,11,12,9,2818,587,932,0,"a.sham","1","press",1,"GAL","Go",1,231,"3",16,"neutral","Avoid",NA
"232","BNVN0020",10,10,11,12,9,2482,767,735,0,"a.sham","1","press",1,"GW","Go",1,232,"3",19,"neutral","Win",NA
"233","BNVN0020",10,10,11,12,9,1344,965,579,1,"a.sham","1","press",1,"GW","Go",1,233,"3",20,"win","Win","win"
"234","BNVN0020",9,10,11,12,9,3276,640,0,0,"a.sham","1","no_press",0,"NGL","noGo",1,234,"3",18,"neutral","Avoid",NA
"235","BNVN0020",9,10,11,12,9,2298,671,0,0,"a.sham","1","no_press",0,"NGL","noGo",1,235,"3",19,"neutral","Avoid",NA
"236","BNVN0020",11,10,11,12,9,1785,928,965,0,"a.sham","1","press",1,"GAL","Go",1,236,"3",17,"neutral","Avoid",NA
"237","BNVN0020",11,10,11,12,9,1596,596,1056,0,"a.sham","1","press",1,"GAL","Go",1,237,"3",18,"neutral","Avoid",NA
"238","BNVN0020",9,10,11,12,9,1932,656,0,0,"a.sham","1","no_press",0,"NGL","noGo",1,238,"3",20,"neutral","Avoid",NA
"239","BNVN0020",11,10,11,12,9,2125,750,1099,0,"a.sham","1","press",1,"GAL","Go",1,239,"3",19,"neutral","Avoid",NA
"240","BNVN0020",11,10,11,12,9,1588,656,582,0,"a.sham","1","press",1,"GAL","Go",1,240,"3",20,"neutral","Avoid",NA
"241","BNVN0020",16,16,13,14,15,2492,783,907,1,"a.sham","1","press",1,"GW","Go",1,241,"4",1,"win","Win","win"
"242","BNVN0020",14,16,13,14,15,1869,934,643,0,"a.sham","1","press",1,"NGW","noGo",0,242,"4",1,"neutral","Win",NA
"243","BNVN0020",14,16,13,14,15,2794,638,854,1,"a.sham","1","press",1,"NGW","noGo",0,243,"4",2,"win","Win","win"
"244","BNVN0020",16,16,13,14,15,1346,710,619,1,"a.sham","1","press",1,"GW","Go",1,244,"4",2,"win","Win","win"
"245","BNVN0020",15,16,13,14,15,1474,840,1089,-1,"a.sham","1","press",1,"NGL","noGo",0,245,"4",1,"lose","Avoid","lose"
"246","BNVN0020",15,16,13,14,15,2776,515,0,0,"a.sham","1","no_press",0,"NGL","noGo",1,246,"4",2,"neutral","Avoid",NA
"247","BNVN0020",13,16,13,14,15,1990,805,0,-1,"a.sham","1","no_press",0,"GAL","Go",0,247,"4",1,"lose","Avoid","lose"
"248","BNVN0020",16,16,13,14,15,1942,698,436,0,"a.sham","1","press",1,"GW","Go",1,248,"4",3,"neutral","Win",NA
"249","BNVN0020",13,16,13,14,15,2873,820,760,0,"a.sham","1","press",1,"GAL","Go",1,249,"4",2,"neutral","Avoid",NA
"250","BNVN0020",14,16,13,14,15,2221,916,1147,0,"a.sham","1","press",1,"NGW","noGo",0,250,"4",3,"neutral","Win",NA
"251","BNVN0020",13,16,13,14,15,1822,631,0,0,"a.sham","1","no_press",0,"GAL","Go",0,251,"4",3,"neutral","Avoid",NA
"252","BNVN0020",15,16,13,14,15,1965,629,0,0,"a.sham","1","no_press",0,"NGL","noGo",1,252,"4",3,"neutral","Avoid",NA
"253","BNVN0020",14,16,13,14,15,2344,518,0,1,"a.sham","1","no_press",0,"NGW","noGo",1,253,"4",4,"win","Win","win"
"254","BNVN0020",15,16,13,14,15,2291,863,0,0,"a.sham","1","no_press",0,"NGL","noGo",1,254,"4",4,"neutral","Avoid",NA
"255","BNVN0020",15,16,13,14,15,2169,664,0,0,"a.sham","1","no_press",0,"NGL","noGo",1,255,"4",5,"neutral","Avoid",NA
"256","BNVN0020",15,16,13,14,15,2019,609,0,0,"a.sham","1","no_press",0,"NGL","noGo",1,256,"4",6,"neutral","Avoid",NA
"257","BNVN0020",14,16,13,14,15,2063,625,0,0,"a.sham","1","no_press",0,"NGW","noGo",1,257,"4",5,"neutral","Win",NA
"258","BNVN0020",16,16,13,14,15,1855,934,566,1,"a.sham","1","press",1,"GW","Go",1,258,"4",4,"win","Win","win"
"259","BNVN0020",15,16,13,14,15,1772,645,0,0,"a.sham","1","no_press",0,"NGL","noGo",1,259,"4",7,"neutral","Avoid",NA
"260","BNVN0020",13,16,13,14,15,1630,660,0,-1,"a.sham","1","no_press",0,"GAL","Go",0,260,"4",4,"lose","Avoid","lose"
"261","BNVN0020",15,16,13,14,15,2084,570,0,0,"a.sham","1","no_press",0,"NGL","noGo",1,261,"4",8,"neutral","Avoid",NA
"262","BNVN0020",13,16,13,14,15,2018,955,0,-1,"a.sham","1","no_press",0,"GAL","Go",0,262,"4",5,"lose","Avoid","lose"
"263","BNVN0020",16,16,13,14,15,2381,643,663,1,"a.sham","1","press",1,"GW","Go",1,263,"4",5,"win","Win","win"
"264","BNVN0020",13,16,13,14,15,3099,550,999,0,"a.sham","1","press",1,"GAL","Go",1,264,"4",6,"neutral","Avoid",NA
"265","BNVN0020",13,16,13,14,15,1825,598,536,-1,"a.sham","1","press",1,"GAL","Go",1,265,"4",7,"lose","Avoid","lose"
"266","BNVN0020",16,16,13,14,15,2402,775,514,1,"a.sham","1","press",1,"GW","Go",1,266,"4",6,"win","Win","win"
"267","BNVN0020",15,16,13,14,15,2348,591,0,0,"a.sham","1","no_press",0,"NGL","noGo",1,267,"4",9,"neutral","Avoid",NA
"268","BNVN0020",14,16,13,14,15,2357,966,867,0,"a.sham","1","press",1,"NGW","noGo",0,268,"4",6,"neutral","Win",NA
"269","BNVN0020",16,16,13,14,15,2228,968,638,1,"a.sham","1","press",1,"GW","Go",1,269,"4",7,"win","Win","win"
"270","BNVN0020",15,16,13,14,15,2237,541,0,-1,"a.sham","1","no_press",0,"NGL","noGo",1,270,"4",10,"lose","Avoid","lose"
"271","BNVN0020",14,16,13,14,15,2695,665,976,0,"a.sham","1","press",1,"NGW","noGo",0,271,"4",7,"neutral","Win",NA
"272","BNVN0020",14,16,13,14,15,3626,871,0,1,"a.sham","1","no_press",0,"NGW","noGo",1,272,"4",8,"win","Win","win"
"273","BNVN0020",15,16,13,14,15,1861,748,0,0,"a.sham","1","no_press",0,"NGL","noGo",1,273,"4",11,"neutral","Avoid",NA
"274","BNVN0020",13,16,13,14,15,2139,811,0,-1,"a.sham","1","no_press",0,"GAL","Go",0,274,"4",8,"lose","Avoid","lose"
"275","BNVN0020",16,16,13,14,15,2044,611,683,1,"a.sham","1","press",1,"GW","Go",1,275,"4",8,"win","Win","win"
"276","BNVN0020",15,16,13,14,15,2319,797,0,0,"a.sham","1","no_press",0,"NGL","noGo",1,276,"4",12,"neutral","Avoid",NA
"277","BNVN0020",16,16,13,14,15,2446,855,701,1,"a.sham","1","press",1,"GW","Go",1,277,"4",9,"win","Win","win"
"278","BNVN0020",15,16,13,14,15,2227,989,0,0,"a.sham","1","no_press",0,"NGL","noGo",1,278,"4",13,"neutral","Avoid",NA
"279","BNVN0020",16,16,13,14,15,1880,832,536,1,"a.sham","1","press",1,"GW","Go",1,279,"4",10,"win","Win","win"
"280","BNVN0020",16,16,13,14,15,1798,501,633,0,"a.sham","1","press",1,"GW","Go",1,280,"4",11,"neutral","Win",NA
"281","BNVN0020",14,16,13,14,15,2511,981,995,0,"a.sham","1","press",1,"NGW","noGo",0,281,"4",9,"neutral","Win",NA
"282","BNVN0020",15,16,13,14,15,2277,902,0,0,"a.sham","1","no_press",0,"NGL","noGo",1,282,"4",14,"neutral","Avoid",NA
"283","BNVN0020",15,16,13,14,15,1240,943,0,-1,"a.sham","1","no_press",0,"NGL","noGo",1,283,"4",15,"lose","Avoid","lose"
"284","BNVN0020",14,16,13,14,15,2692,677,663,0,"a.sham","1","press",1,"NGW","noGo",0,284,"4",10,"neutral","Win",NA
"285","BNVN0020",14,16,13,14,15,1678,753,0,1,"a.sham","1","no_press",0,"NGW","noGo",1,285,"4",11,"win","Win","win"
"286","BNVN0020",14,16,13,14,15,1771,635,0,1,"a.sham","1","no_press",0,"NGW","noGo",1,286,"4",12,"win","Win","win"
"287","BNVN0020",13,16,13,14,15,1885,578,854,0,"a.sham","1","press",1,"GAL","Go",1,287,"4",9,"neutral","Avoid",NA
"288","BNVN0020",14,16,13,14,15,1909,851,0,1,"a.sham","1","no_press",0,"NGW","noGo",1,288,"4",13,"win","Win","win"
"289","BNVN0020",14,16,13,14,15,1537,532,0,1,"a.sham","1","no_press",0,"NGW","noGo",1,289,"4",14,"win","Win","win"
"290","BNVN0020",13,16,13,14,15,1206,575,0,-1,"a.sham","1","no_press",0,"GAL","Go",0,290,"4",10,"lose","Avoid","lose"
"291","BNVN0020",15,16,13,14,15,2195,614,0,-1,"a.sham","1","no_press",0,"NGL","noGo",1,291,"4",16,"lose","Avoid","lose"
"292","BNVN0020",16,16,13,14,15,1543,525,586,1,"a.sham","1","press",1,"GW","Go",1,292,"4",12,"win","Win","win"
"293","BNVN0020",16,16,13,14,15,2057,758,799,1,"a.sham","1","press",1,"GW","Go",1,293,"4",13,"win","Win","win"
"294","BNVN0020",14,16,13,14,15,1196,813,0,0,"a.sham","1","no_press",0,"NGW","noGo",1,294,"4",15,"neutral","Win",NA
"295","BNVN0020",15,16,13,14,15,1462,770,0,0,"a.sham","1","no_press",0,"NGL","noGo",1,295,"4",17,"neutral","Avoid",NA
"296","BNVN0020",14,16,13,14,15,1743,521,0,1,"a.sham","1","no_press",0,"NGW","noGo",1,296,"4",16,"win","Win","win"
"297","BNVN0020",14,16,13,14,15,1504,923,0,0,"a.sham","1","no_press",0,"NGW","noGo",1,297,"4",17,"neutral","Win",NA
"298","BNVN0020",13,16,13,14,15,1964,670,970,0,"a.sham","1","press",1,"GAL","Go",1,298,"4",11,"neutral","Avoid",NA
"299","BNVN0020",13,16,13,14,15,2041,703,774,0,"a.sham","1","press",1,"GAL","Go",1,299,"4",12,"neutral","Avoid",NA
"300","BNVN0020",13,16,13,14,15,1953,531,898,-1,"a.sham","1","press",1,"GAL","Go",1,300,"4",13,"lose","Avoid","lose"
"301","BNVN0020",13,16,13,14,15,2026,836,634,0,"a.sham","1","press",1,"GAL","Go",1,301,"4",14,"neutral","Avoid",NA
"302","BNVN0020",15,16,13,14,15,2234,740,0,-1,"a.sham","1","no_press",0,"NGL","noGo",1,302,"4",18,"lose","Avoid","lose"
"303","BNVN0020",13,16,13,14,15,1189,981,682,0,"a.sham","1","press",1,"GAL","Go",1,303,"4",15,"neutral","Avoid",NA
"304","BNVN0020",16,16,13,14,15,1479,865,583,0,"a.sham","1","press",1,"GW","Go",1,304,"4",14,"neutral","Win",NA
"305","BNVN0020",13,16,13,14,15,1000,573,899,0,"a.sham","1","press",1,"GAL","Go",1,305,"4",16,"neutral","Avoid",NA
"306","BNVN0020",13,16,13,14,15,2448,766,649,0,"a.sham","1","press",1,"GAL","Go",1,306,"4",17,"neutral","Avoid",NA
"307","BNVN0020",14,16,13,14,15,3515,968,716,0,"a.sham","1","press",1,"NGW","noGo",0,307,"4",18,"neutral","Win",NA
"308","BNVN0020",15,16,13,14,15,2080,843,0,0,"a.sham","1","no_press",0,"NGL","noGo",1,308,"4",19,"neutral","Avoid",NA
"309","BNVN0020",16,16,13,14,15,1666,773,646,1,"a.sham","1","press",1,"GW","Go",1,309,"4",15,"win","Win","win"
"310","BNVN0020",13,16,13,14,15,2977,616,789,0,"a.sham","1","press",1,"GAL","Go",1,310,"4",18,"neutral","Avoid",NA
"311","BNVN0020",15,16,13,14,15,1615,728,0,0,"a.sham","1","no_press",0,"NGL","noGo",1,311,"4",20,"neutral","Avoid",NA
"312","BNVN0020",16,16,13,14,15,1266,686,620,1,"a.sham","1","press",1,"GW","Go",1,312,"4",16,"win","Win","win"
"313","BNVN0020",16,16,13,14,15,1848,826,656,1,"a.sham","1","press",1,"GW","Go",1,313,"4",17,"win","Win","win"
"314","BNVN0020",13,16,13,14,15,1634,911,1346,0,"a.sham","1","press",1,"GAL","Go",1,314,"4",19,"neutral","Avoid",NA
"315","BNVN0020",16,16,13,14,15,2032,576,569,1,"a.sham","1","press",1,"GW","Go",1,315,"4",18,"win","Win","win"
"316","BNVN0020",13,16,13,14,15,2372,947,1375,0,"a.sham","1","press",1,"GAL","Go",1,316,"4",20,"neutral","Avoid",NA
"317","BNVN0020",14,16,13,14,15,2239,644,674,0,"a.sham","1","press",1,"NGW","noGo",0,317,"4",19,"neutral","Win",NA
"318","BNVN0020",16,16,13,14,15,2367,900,549,0,"a.sham","1","press",1,"GW","Go",1,318,"4",19,"neutral","Win",NA
"319","BNVN0020",14,16,13,14,15,2126,913,0,1,"a.sham","1","no_press",0,"NGW","noGo",1,319,"4",20,"win","Win","win"
"320","BNVN0020",16,16,13,14,15,1965,875,626,1,"a.sham","1","press",1,"GW","Go",1,320,"4",20,"win","Win","win"
"321","DIVL0216",1,2,3,4,1,1676,517,0,0,"a.sham","3","no_press",0,"NGL","noGo",1,1,"1",1,"neutral","Avoid",NA
"322","DIVL0216",3,2,3,4,1,1755,536,0,-1,"a.sham","3","no_press",0,"GAL","Go",0,2,"1",1,"lose","Avoid","lose"
"323","DIVL0216",3,2,3,4,1,2674,572,315,-1,"a.sham","3","press",1,"GAL","Go",1,3,"1",2,"lose","Avoid","lose"
"324","DIVL0216",1,2,3,4,1,1486,962,970,-1,"a.sham","3","press",1,"NGL","noGo",0,4,"1",2,"lose","Avoid","lose"
"325","DIVL0216",4,2,3,4,1,2198,690,578,0,"a.sham","3","press",1,"NGW","noGo",0,5,"1",1,"neutral","Win",NA
"326","DIVL0216",2,2,3,4,1,2158,985,505,1,"a.sham","3","press",1,"GW","Go",1,6,"1",1,"win","Win","win"
"327","DIVL0216",4,2,3,4,1,1771,786,523,0,"a.sham","3","press",1,"NGW","noGo",0,7,"1",2,"neutral","Win",NA
"328","DIVL0216",3,2,3,4,1,2508,893,440,-1,"a.sham","3","press",1,"GAL","Go",1,8,"1",3,"lose","Avoid","lose"
"329","DIVL0216",2,2,3,4,1,2757,696,439,1,"a.sham","3","press",1,"GW","Go",1,9,"1",2,"win","Win","win"
"330","DIVL0216",2,2,3,4,1,2082,605,535,1,"a.sham","3","press",1,"GW","Go",1,10,"1",3,"win","Win","win"
"331","DIVL0216",2,2,3,4,1,1821,778,428,1,"a.sham","3","press",1,"GW","Go",1,11,"1",4,"win","Win","win"
"332","DIVL0216",4,2,3,4,1,2015,842,634,0,"a.sham","3","press",1,"NGW","noGo",0,12,"1",3,"neutral","Win",NA
"333","DIVL0216",3,2,3,4,1,1477,581,434,0,"a.sham","3","press",1,"GAL","Go",1,13,"1",4,"neutral","Avoid",NA
"334","DIVL0216",4,2,3,4,1,1525,631,0,0,"a.sham","3","no_press",0,"NGW","noGo",1,14,"1",4,"neutral","Win",NA
"335","DIVL0216",3,2,3,4,1,2103,658,0,-1,"a.sham","3","no_press",0,"GAL","Go",0,15,"1",5,"lose","Avoid","lose"
"336","DIVL0216",2,2,3,4,1,1000,582,402,1,"a.sham","3","press",1,"GW","Go",1,16,"1",5,"win","Win","win"
"337","DIVL0216",1,2,3,4,1,1616,700,668,-1,"a.sham","3","press",1,"NGL","noGo",0,17,"1",3,"lose","Avoid","lose"
"338","DIVL0216",2,2,3,4,1,3088,919,509,1,"a.sham","3","press",1,"GW","Go",1,18,"1",6,"win","Win","win"
"339","DIVL0216",3,2,3,4,1,1840,599,554,0,"a.sham","3","press",1,"GAL","Go",1,19,"1",6,"neutral","Avoid",NA
"340","DIVL0216",1,2,3,4,1,1989,750,0,0,"a.sham","3","no_press",0,"NGL","noGo",1,20,"1",4,"neutral","Avoid",NA
"341","DIVL0216",4,2,3,4,1,1712,884,0,1,"a.sham","3","no_press",0,"NGW","noGo",1,21,"1",5,"win","Win","win"
"342","DIVL0216",2,2,3,4,1,3465,574,456,1,"a.sham","3","press",1,"GW","Go",1,22,"1",7,"win","Win","win"
"343","DIVL0216",3,2,3,4,1,1653,733,593,0,"a.sham","3","press",1,"GAL","Go",1,23,"1",7,"neutral","Avoid",NA
"344","DIVL0216",2,2,3,4,1,1160,659,432,1,"a.sham","3","press",1,"GW","Go",1,24,"1",8,"win","Win","win"
"345","DIVL0216",2,2,3,4,1,2606,999,394,0,"a.sham","3","press",1,"GW","Go",1,25,"1",9,"neutral","Win",NA
"346","DIVL0216",2,2,3,4,1,1000,802,449,1,"a.sham","3","press",1,"GW","Go",1,26,"1",10,"win","Win","win"
"347","DIVL0216",3,2,3,4,1,1486,504,362,0,"a.sham","3","press",1,"GAL","Go",1,27,"1",8,"neutral","Avoid",NA
"348","DIVL0216",3,2,3,4,1,2439,985,388,-1,"a.sham","3","press",1,"GAL","Go",1,28,"1",9,"lose","Avoid","lose"
"349","DIVL0216",4,2,3,4,1,1530,1000,0,1,"a.sham","3","no_press",0,"NGW","noGo",1,29,"1",6,"win","Win","win"
"350","DIVL0216",1,2,3,4,1,2964,782,0,0,"a.sham","3","no_press",0,"NGL","noGo",1,30,"1",5,"neutral","Avoid",NA
"351","DIVL0216",1,2,3,4,1,3377,632,0,0,"a.sham","3","no_press",0,"NGL","noGo",1,31,"1",6,"neutral","Avoid",NA
"352","DIVL0216",2,2,3,4,1,2136,880,503,0,"a.sham","3","press",1,"GW","Go",1,32,"1",11,"neutral","Win",NA
"353","DIVL0216",2,2,3,4,1,1876,845,488,1,"a.sham","3","press",1,"GW","Go",1,33,"1",12,"win","Win","win"
"354","DIVL0216",3,2,3,4,1,1577,706,508,0,"a.sham","3","press",1,"GAL","Go",1,34,"1",10,"neutral","Avoid",NA
"355","DIVL0216",2,2,3,4,1,1211,630,404,1,"a.sham","3","press",1,"GW","Go",1,35,"1",13,"win","Win","win"
"356","DIVL0216",4,2,3,4,1,2144,894,0,1,"a.sham","3","no_press",0,"NGW","noGo",1,36,"1",7,"win","Win","win"
"357","DIVL0216",2,2,3,4,1,1279,728,451,0,"a.sham","3","press",1,"GW","Go",1,37,"1",14,"neutral","Win",NA
"358","DIVL0216",1,2,3,4,1,2172,989,0,0,"a.sham","3","no_press",0,"NGL","noGo",1,38,"1",7,"neutral","Avoid",NA
"359","DIVL0216",1,2,3,4,1,2308,977,0,0,"a.sham","3","no_press",0,"NGL","noGo",1,39,"1",8,"neutral","Avoid",NA
"360","DIVL0216",4,2,3,4,1,1816,898,0,1,"a.sham","3","no_press",0,"NGW","noGo",1,40,"1",8,"win","Win","win"
"361","DIVL0216",3,2,3,4,1,2116,851,517,0,"a.sham","3","press",1,"GAL","Go",1,41,"1",11,"neutral","Avoid",NA
"362","DIVL0216",3,2,3,4,1,3042,934,533,0,"a.sham","3","press",1,"GAL","Go",1,42,"1",12,"neutral","Avoid",NA
"363","DIVL0216",2,2,3,4,1,1643,610,448,1,"a.sham","3","press",1,"GW","Go",1,43,"1",15,"win","Win","win"
"364","DIVL0216",1,2,3,4,1,2307,610,0,0,"a.sham","3","no_press",0,"NGL","noGo",1,44,"1",9,"neutral","Avoid",NA
"365","DIVL0216",3,2,3,4,1,2023,1000,363,0,"a.sham","3","press",1,"GAL","Go",1,45,"1",13,"neutral","Avoid",NA
"366","DIVL0216",3,2,3,4,1,1254,742,390,-1,"a.sham","3","press",1,"GAL","Go",1,46,"1",14,"lose","Avoid","lose"
"367","DIVL0216",4,2,3,4,1,1809,835,0,1,"a.sham","3","no_press",0,"NGW","noGo",1,47,"1",9,"win","Win","win"
"368","DIVL0216",1,2,3,4,1,1596,948,0,0,"a.sham","3","no_press",0,"NGL","noGo",1,48,"1",10,"neutral","Avoid",NA
"369","DIVL0216",3,2,3,4,1,1752,524,497,0,"a.sham","3","press",1,"GAL","Go",1,49,"1",15,"neutral","Avoid",NA
"370","DIVL0216",4,2,3,4,1,1469,659,0,0,"a.sham","3","no_press",0,"NGW","noGo",1,50,"1",10,"neutral","Win",NA
"371","DIVL0216",3,2,3,4,1,2200,960,426,0,"a.sham","3","press",1,"GAL","Go",1,51,"1",16,"neutral","Avoid",NA
"372","DIVL0216",1,2,3,4,1,1155,530,0,-1,"a.sham","3","no_press",0,"NGL","noGo",1,52,"1",11,"lose","Avoid","lose"
"373","DIVL0216",1,2,3,4,1,2314,611,0,0,"a.sham","3","no_press",0,"NGL","noGo",1,53,"1",12,"neutral","Avoid",NA
"374","DIVL0216",1,2,3,4,1,1803,612,0,-1,"a.sham","3","no_press",0,"NGL","noGo",1,54,"1",13,"lose","Avoid","lose"
"375","DIVL0216",2,2,3,4,1,2454,810,396,1,"a.sham","3","press",1,"GW","Go",1,55,"1",16,"win","Win","win"
"376","DIVL0216",4,2,3,4,1,2225,582,0,1,"a.sham","3","no_press",0,"NGW","noGo",1,56,"1",11,"win","Win","win"
"377","DIVL0216",1,2,3,4,1,1491,567,0,0,"a.sham","3","no_press",0,"NGL","noGo",1,57,"1",14,"neutral","Avoid",NA
"378","DIVL0216",1,2,3,4,1,2428,892,0,0,"a.sham","3","no_press",0,"NGL","noGo",1,58,"1",15,"neutral","Avoid",NA
"379","DIVL0216",1,2,3,4,1,1996,741,0,0,"a.sham","3","no_press",0,"NGL","noGo",1,59,"1",16,"neutral","Avoid",NA
"380","DIVL0216",1,2,3,4,1,1000,753,0,0,"a.sham","3","no_press",0,"NGL","noGo",1,60,"1",17,"neutral","Avoid",NA
"381","DIVL0216",4,2,3,4,1,3438,974,0,1,"a.sham","3","no_press",0,"NGW","noGo",1,61,"1",12,"win","Win","win"
"382","DIVL0216",3,2,3,4,1,1765,772,575,0,"a.sham","3","press",1,"GAL","Go",1,62,"1",17,"neutral","Avoid",NA
"383","DIVL0216",2,2,3,4,1,2224,508,425,1,"a.sham","3","press",1,"GW","Go",1,63,"1",17,"win","Win","win"
"384","DIVL0216",4,2,3,4,1,2355,717,0,1,"a.sham","3","no_press",0,"NGW","noGo",1,64,"1",13,"win","Win","win"
"385","DIVL0216",4,2,3,4,1,1486,750,0,0,"a.sham","3","no_press",0,"NGW","noGo",1,65,"1",14,"neutral","Win",NA
"386","DIVL0216",4,2,3,4,1,3256,838,0,1,"a.sham","3","no_press",0,"NGW","noGo",1,66,"1",15,"win","Win","win"
"387","DIVL0216",1,2,3,4,1,1498,890,0,-1,"a.sham","3","no_press",0,"NGL","noGo",1,67,"1",18,"lose","Avoid","lose"
"388","DIVL0216",3,2,3,4,1,2502,705,544,0,"a.sham","3","press",1,"GAL","Go",1,68,"1",18,"neutral","Avoid",NA
"389","DIVL0216",3,2,3,4,1,1468,937,493,0,"a.sham","3","press",1,"GAL","Go",1,69,"1",19,"neutral","Avoid",NA
"390","DIVL0216",4,2,3,4,1,5000,973,0,1,"a.sham","3","no_press",0,"NGW","noGo",1,70,"1",16,"win","Win","win"
"391","DIVL0216",4,2,3,4,1,2096,535,0,1,"a.sham","3","no_press",0,"NGW","noGo",1,71,"1",17,"win","Win","win"
"392","DIVL0216",4,2,3,4,1,1773,507,0,0,"a.sham","3","no_press",0,"NGW","noGo",1,72,"1",18,"neutral","Win",NA
"393","DIVL0216",1,2,3,4,1,1681,712,0,0,"a.sham","3","no_press",0,"NGL","noGo",1,73,"1",19,"neutral","Avoid",NA
"394","DIVL0216",4,2,3,4,1,1813,875,0,1,"a.sham","3","no_press",0,"NGW","noGo",1,74,"1",19,"win","Win","win"
"395","DIVL0216",2,2,3,4,1,2547,635,445,0,"a.sham","3","press",1,"GW","Go",1,75,"1",18,"neutral","Win",NA
"396","DIVL0216",3,2,3,4,1,1827,699,477,0,"a.sham","3","press",1,"GAL","Go",1,76,"1",20,"neutral","Avoid",NA
"397","DIVL0216",1,2,3,4,1,1000,930,0,0,"a.sham","3","no_press",0,"NGL","noGo",1,77,"1",20,"neutral","Avoid",NA
"398","DIVL0216",2,2,3,4,1,1857,549,392,1,"a.sham","3","press",1,"GW","Go",1,78,"1",19,"win","Win","win"
"399","DIVL0216",2,2,3,4,1,2632,605,450,1,"a.sham","3","press",1,"GW","Go",1,79,"1",20,"win","Win","win"
"400","DIVL0216",4,2,3,4,1,3396,679,371,0,"a.sham","3","press",1,"NGW","noGo",0,80,"1",20,"neutral","Win",NA
"401","DIVL0216",6,6,7,8,5,1699,889,640,1,"a.sham","3","press",1,"GW","Go",1,81,"2",1,"win","Win","win"
"402","DIVL0216",6,6,7,8,5,1645,532,318,1,"a.sham","3","press",1,"GW","Go",1,82,"2",2,"win","Win","win"
"403","DIVL0216",5,6,7,8,5,1402,601,0,0,"a.sham","3","no_press",0,"NGL","noGo",1,83,"2",1,"neutral","Avoid",NA
"404","DIVL0216",6,6,7,8,5,2434,890,644,1,"a.sham","3","press",1,"GW","Go",1,84,"2",3,"win","Win","win"
"405","DIVL0216",7,6,7,8,5,1491,960,509,-1,"a.sham","3","press",1,"GAL","Go",1,85,"2",1,"lose","Avoid","lose"
"406","DIVL0216",7,6,7,8,5,2188,654,0,-1,"a.sham","3","no_press",0,"GAL","Go",0,86,"2",2,"lose","Avoid","lose"
"407","DIVL0216",6,6,7,8,5,2209,831,517,1,"a.sham","3","press",1,"GW","Go",1,87,"2",4,"win","Win","win"
"408","DIVL0216",7,6,7,8,5,2712,723,537,0,"a.sham","3","press",1,"GAL","Go",1,88,"2",3,"neutral","Avoid",NA
"409","DIVL0216",7,6,7,8,5,3823,727,0,-1,"a.sham","3","no_press",0,"GAL","Go",0,89,"2",4,"lose","Avoid","lose"
"410","DIVL0216",8,6,7,8,5,2044,745,589,0,"a.sham","3","press",1,"NGW","noGo",0,90,"2",1,"neutral","Win",NA
"411","DIVL0216",5,6,7,8,5,1657,803,0,0,"a.sham","3","no_press",0,"NGL","noGo",1,91,"2",2,"neutral","Avoid",NA
"412","DIVL0216",7,6,7,8,5,1735,827,615,0,"a.sham","3","press",1,"GAL","Go",1,92,"2",5,"neutral","Avoid",NA
"413","DIVL0216",7,6,7,8,5,1826,538,534,0,"a.sham","3","press",1,"GAL","Go",1,93,"2",6,"neutral","Avoid",NA
"414","DIVL0216",5,6,7,8,5,1462,841,0,0,"a.sham","3","no_press",0,"NGL","noGo",1,94,"2",3,"neutral","Avoid",NA
"415","DIVL0216",5,6,7,8,5,2480,966,0,0,"a.sham","3","no_press",0,"NGL","noGo",1,95,"2",4,"neutral","Avoid",NA
"416","DIVL0216",8,6,7,8,5,2596,805,0,1,"a.sham","3","no_press",0,"NGW","noGo",1,96,"2",2,"win","Win","win"
"417","DIVL0216",5,6,7,8,5,1838,635,0,0,"a.sham","3","no_press",0,"NGL","noGo",1,97,"2",5,"neutral","Avoid",NA
"418","DIVL0216",6,6,7,8,5,2336,511,521,1,"a.sham","3","press",1,"GW","Go",1,98,"2",5,"win","Win","win"
"419","DIVL0216",7,6,7,8,5,1000,941,420,0,"a.sham","3","press",1,"GAL","Go",1,99,"2",7,"neutral","Avoid",NA
"420","DIVL0216",7,6,7,8,5,1652,894,434,0,"a.sham","3","press",1,"GAL","Go",1,100,"2",8,"neutral","Avoid",NA
"421","DIVL0216",5,6,7,8,5,1439,535,402,0,"a.sham","3","press",1,"NGL","noGo",0,101,"2",6,"neutral","Avoid",NA
"422","DIVL0216",8,6,7,8,5,2000,526,0,1,"a.sham","3","no_press",0,"NGW","noGo",1,102,"2",3,"win","Win","win"
"423","DIVL0216",8,6,7,8,5,1540,714,0,1,"a.sham","3","no_press",0,"NGW","noGo",1,103,"2",4,"win","Win","win"
"424","DIVL0216",7,6,7,8,5,2512,864,541,0,"a.sham","3","press",1,"GAL","Go",1,104,"2",9,"neutral","Avoid",NA
"425","DIVL0216",5,6,7,8,5,1732,546,0,0,"a.sham","3","no_press",0,"NGL","noGo",1,105,"2",7,"neutral","Avoid",NA
"426","DIVL0216",8,6,7,8,5,1768,595,0,1,"a.sham","3","no_press",0,"NGW","noGo",1,106,"2",5,"win","Win","win"
"427","DIVL0216",7,6,7,8,5,1744,991,490,0,"a.sham","3","press",1,"GAL","Go",1,107,"2",10,"neutral","Avoid",NA
"428","DIVL0216",5,6,7,8,5,2103,686,0,0,"a.sham","3","no_press",0,"NGL","noGo",1,108,"2",8,"neutral","Avoid",NA
"429","DIVL0216",6,6,7,8,5,1783,711,504,1,"a.sham","3","press",1,"GW","Go",1,109,"2",6,"win","Win","win"
"430","DIVL0216",6,6,7,8,5,1574,546,475,0,"a.sham","3","press",1,"GW","Go",1,110,"2",7,"neutral","Win",NA
"431","DIVL0216",8,6,7,8,5,1446,561,0,1,"a.sham","3","no_press",0,"NGW","noGo",1,111,"2",6,"win","Win","win"
"432","DIVL0216",7,6,7,8,5,1929,746,462,0,"a.sham","3","press",1,"GAL","Go",1,112,"2",11,"neutral","Avoid",NA
"433","DIVL0216",6,6,7,8,5,1182,990,413,1,"a.sham","3","press",1,"GW","Go",1,113,"2",8,"win","Win","win"
"434","DIVL0216",5,6,7,8,5,2628,763,0,0,"a.sham","3","no_press",0,"NGL","noGo",1,114,"2",9,"neutral","Avoid",NA
"435","DIVL0216",6,6,7,8,5,2813,776,462,1,"a.sham","3","press",1,"GW","Go",1,115,"2",9,"win","Win","win"
"436","DIVL0216",7,6,7,8,5,2137,834,457,-1,"a.sham","3","press",1,"GAL","Go",1,116,"2",12,"lose","Avoid","lose"
"437","DIVL0216",6,6,7,8,5,1741,852,405,1,"a.sham","3","press",1,"GW","Go",1,117,"2",10,"win","Win","win"
"438","DIVL0216",7,6,7,8,5,1867,632,393,-1,"a.sham","3","press",1,"GAL","Go",1,118,"2",13,"lose","Avoid","lose"
"439","DIVL0216",5,6,7,8,5,2086,739,0,0,"a.sham","3","no_press",0,"NGL","noGo",1,119,"2",10,"neutral","Avoid",NA
"440","DIVL0216",7,6,7,8,5,2035,698,410,0,"a.sham","3","press",1,"GAL","Go",1,120,"2",14,"neutral","Avoid",NA
"441","DIVL0216",8,6,7,8,5,1761,871,0,0,"a.sham","3","no_press",0,"NGW","noGo",1,121,"2",7,"neutral","Win",NA
"442","DIVL0216",5,6,7,8,5,1756,677,0,0,"a.sham","3","no_press",0,"NGL","noGo",1,122,"2",11,"neutral","Avoid",NA
"443","DIVL0216",7,6,7,8,5,1487,748,489,0,"a.sham","3","press",1,"GAL","Go",1,123,"2",15,"neutral","Avoid",NA
"444","DIVL0216",5,6,7,8,5,1321,653,0,0,"a.sham","3","no_press",0,"NGL","noGo",1,124,"2",12,"neutral","Avoid",NA
"445","DIVL0216",7,6,7,8,5,2969,961,473,0,"a.sham","3","press",1,"GAL","Go",1,125,"2",16,"neutral","Avoid",NA
"446","DIVL0216",6,6,7,8,5,1584,940,404,1,"a.sham","3","press",1,"GW","Go",1,126,"2",11,"win","Win","win"
"447","DIVL0216",8,6,7,8,5,2659,662,0,0,"a.sham","3","no_press",0,"NGW","noGo",1,127,"2",8,"neutral","Win",NA
"448","DIVL0216",7,6,7,8,5,2044,600,468,0,"a.sham","3","press",1,"GAL","Go",1,128,"2",17,"neutral","Avoid",NA
"449","DIVL0216",5,6,7,8,5,1928,707,0,0,"a.sham","3","no_press",0,"NGL","noGo",1,129,"2",13,"neutral","Avoid",NA
"450","DIVL0216",8,6,7,8,5,1617,600,0,1,"a.sham","3","no_press",0,"NGW","noGo",1,130,"2",9,"win","Win","win"
"451","DIVL0216",6,6,7,8,5,2200,794,476,1,"a.sham","3","press",1,"GW","Go",1,131,"2",12,"win","Win","win"
"452","DIVL0216",8,6,7,8,5,2185,608,0,0,"a.sham","3","no_press",0,"NGW","noGo",1,132,"2",10,"neutral","Win",NA
"453","DIVL0216",8,6,7,8,5,1617,550,0,1,"a.sham","3","no_press",0,"NGW","noGo",1,133,"2",11,"win","Win","win"
"454","DIVL0216",8,6,7,8,5,1962,566,0,1,"a.sham","3","no_press",0,"NGW","noGo",1,134,"2",12,"win","Win","win"
"455","DIVL0216",8,6,7,8,5,1447,585,0,1,"a.sham","3","no_press",0,"NGW","noGo",1,135,"2",13,"win","Win","win"
"456","DIVL0216",8,6,7,8,5,1000,862,0,1,"a.sham","3","no_press",0,"NGW","noGo",1,136,"2",14,"win","Win","win"
"457","DIVL0216",6,6,7,8,5,1671,521,426,0,"a.sham","3","press",1,"GW","Go",1,137,"2",13,"neutral","Win",NA
"458","DIVL0216",5,6,7,8,5,1518,850,0,0,"a.sham","3","no_press",0,"NGL","noGo",1,138,"2",14,"neutral","Avoid",NA
"459","DIVL0216",5,6,7,8,5,1747,983,0,0,"a.sham","3","no_press",0,"NGL","noGo",1,139,"2",15,"neutral","Avoid",NA
"460","DIVL0216",5,6,7,8,5,1823,888,0,0,"a.sham","3","no_press",0,"NGL","noGo",1,140,"2",16,"neutral","Avoid",NA
"461","DIVL0216",6,6,7,8,5,3087,609,442,0,"a.sham","3","press",1,"GW","Go",1,141,"2",14,"neutral","Win",NA
"462","DIVL0216",6,6,7,8,5,2518,762,455,1,"a.sham","3","press",1,"GW","Go",1,142,"2",15,"win","Win","win"
"463","DIVL0216",8,6,7,8,5,1915,924,0,1,"a.sham","3","no_press",0,"NGW","noGo",1,143,"2",15,"win","Win","win"
"464","DIVL0216",7,6,7,8,5,1633,645,547,0,"a.sham","3","press",1,"GAL","Go",1,144,"2",18,"neutral","Avoid",NA
"465","DIVL0216",5,6,7,8,5,2353,853,0,0,"a.sham","3","no_press",0,"NGL","noGo",1,145,"2",17,"neutral","Avoid",NA
"466","DIVL0216",6,6,7,8,5,2090,768,383,0,"a.sham","3","press",1,"GW","Go",1,146,"2",16,"neutral","Win",NA
"467","DIVL0216",8,6,7,8,5,1183,876,0,1,"a.sham","3","no_press",0,"NGW","noGo",1,147,"2",16,"win","Win","win"
"468","DIVL0216",6,6,7,8,5,2031,970,380,1,"a.sham","3","press",1,"GW","Go",1,148,"2",17,"win","Win","win"
"469","DIVL0216",8,6,7,8,5,1652,683,0,0,"a.sham","3","no_press",0,"NGW","noGo",1,149,"2",17,"neutral","Win",NA
"470","DIVL0216",6,6,7,8,5,2369,569,378,1,"a.sham","3","press",1,"GW","Go",1,150,"2",18,"win","Win","win"
"471","DIVL0216",5,6,7,8,5,1948,847,0,-1,"a.sham","3","no_press",0,"NGL","noGo",1,151,"2",18,"lose","Avoid","lose"
"472","DIVL0216",8,6,7,8,5,3073,812,0,1,"a.sham","3","no_press",0,"NGW","noGo",1,152,"2",18,"win","Win","win"
"473","DIVL0216",8,6,7,8,5,1928,522,0,1,"a.sham","3","no_press",0,"NGW","noGo",1,153,"2",19,"win","Win","win"
"474","DIVL0216",7,6,7,8,5,2446,753,490,0,"a.sham","3","press",1,"GAL","Go",1,154,"2",19,"neutral","Avoid",NA
"475","DIVL0216",6,6,7,8,5,1773,870,417,1,"a.sham","3","press",1,"GW","Go",1,155,"2",19,"win","Win","win"
"476","DIVL0216",5,6,7,8,5,1657,966,0,-1,"a.sham","3","no_press",0,"NGL","noGo",1,156,"2",19,"lose","Avoid","lose"
"477","DIVL0216",6,6,7,8,5,1196,842,429,1,"a.sham","3","press",1,"GW","Go",1,157,"2",20,"win","Win","win"
"478","DIVL0216",8,6,7,8,5,1944,564,0,1,"a.sham","3","no_press",0,"NGW","noGo",1,158,"2",20,"win","Win","win"
"479","DIVL0216",7,6,7,8,5,1815,535,449,-1,"a.sham","3","press",1,"GAL","Go",1,159,"2",20,"lose","Avoid","lose"
"480","DIVL0216",5,6,7,8,5,1430,971,0,0,"a.sham","3","no_press",0,"NGL","noGo",1,160,"2",20,"neutral","Avoid",NA
"481","DIVL0216",9,12,11,10,9,1573,750,0,0,"a.sham","3","no_press",0,"NGL","noGo",1,161,"3",1,"neutral","Avoid",NA
"482","DIVL0216",9,12,11,10,9,2135,900,891,-1,"a.sham","3","press",1,"NGL","noGo",0,162,"3",2,"lose","Avoid","lose"
"483","DIVL0216",11,12,11,10,9,1791,982,519,0,"a.sham","3","press",1,"GAL","Go",1,163,"3",1,"neutral","Avoid",NA
"484","DIVL0216",9,12,11,10,9,1995,583,0,0,"a.sham","3","no_press",0,"NGL","noGo",1,164,"3",3,"neutral","Avoid",NA
"485","DIVL0216",9,12,11,10,9,2247,820,0,-1,"a.sham","3","no_press",0,"NGL","noGo",1,165,"3",4,"lose","Avoid","lose"
"486","DIVL0216",12,12,11,10,9,1727,598,566,1,"a.sham","3","press",1,"GW","Go",1,166,"3",1,"win","Win","win"
"487","DIVL0216",11,12,11,10,9,1982,568,0,-1,"a.sham","3","no_press",0,"GAL","Go",0,167,"3",2,"lose","Avoid","lose"
"488","DIVL0216",10,12,11,10,9,2075,938,605,0,"a.sham","3","press",1,"NGW","noGo",0,168,"3",1,"neutral","Win",NA
"489","DIVL0216",10,12,11,10,9,2253,723,0,0,"a.sham","3","no_press",0,"NGW","noGo",1,169,"3",2,"neutral","Win",NA
"490","DIVL0216",10,12,11,10,9,1776,580,0,1,"a.sham","3","no_press",0,"NGW","noGo",1,170,"3",3,"win","Win","win"
"491","DIVL0216",9,12,11,10,9,1832,846,0,0,"a.sham","3","no_press",0,"NGL","noGo",1,171,"3",5,"neutral","Avoid",NA
"492","DIVL0216",11,12,11,10,9,1923,916,459,0,"a.sham","3","press",1,"GAL","Go",1,172,"3",3,"neutral","Avoid",NA
"493","DIVL0216",9,12,11,10,9,2533,822,0,0,"a.sham","3","no_press",0,"NGL","noGo",1,173,"3",6,"neutral","Avoid",NA
"494","DIVL0216",10,12,11,10,9,1773,612,0,1,"a.sham","3","no_press",0,"NGW","noGo",1,174,"3",4,"win","Win","win"
"495","DIVL0216",12,12,11,10,9,2810,919,493,1,"a.sham","3","press",1,"GW","Go",1,175,"3",2,"win","Win","win"
"496","DIVL0216",10,12,11,10,9,1780,685,0,1,"a.sham","3","no_press",0,"NGW","noGo",1,176,"3",5,"win","Win","win"
"497","DIVL0216",12,12,11,10,9,1918,653,538,0,"a.sham","3","press",1,"GW","Go",1,177,"3",3,"neutral","Win",NA
"498","DIVL0216",9,12,11,10,9,1368,975,0,0,"a.sham","3","no_press",0,"NGL","noGo",1,178,"3",7,"neutral","Avoid",NA
"499","DIVL0216",11,12,11,10,9,3444,600,0,0,"a.sham","3","no_press",0,"GAL","Go",0,179,"3",4,"neutral","Avoid",NA
"500","DIVL0216",9,12,11,10,9,1559,811,0,0,"a.sham","3","no_press",0,"NGL","noGo",1,180,"3",8,"neutral","Avoid",NA
"501","DIVL0216",9,12,11,10,9,2256,619,0,0,"a.sham","3","no_press",0,"NGL","noGo",1,181,"3",9,"neutral","Avoid",NA
"502","DIVL0216",10,12,11,10,9,1904,921,0,0,"a.sham","3","no_press",0,"NGW","noGo",1,182,"3",6,"neutral","Win",NA
"503","DIVL0216",10,12,11,10,9,1711,708,0,1,"a.sham","3","no_press",0,"NGW","noGo",1,183,"3",7,"win","Win","win"
"504","DIVL0216",10,12,11,10,9,2129,561,0,1,"a.sham","3","no_press",0,"NGW","noGo",1,184,"3",8,"win","Win","win"
"505","DIVL0216",12,12,11,10,9,2083,706,437,1,"a.sham","3","press",1,"GW","Go",1,185,"3",4,"win","Win","win"
"506","DIVL0216",10,12,11,10,9,1222,646,0,0,"a.sham","3","no_press",0,"NGW","noGo",1,186,"3",9,"neutral","Win",NA
"507","DIVL0216",10,12,11,10,9,3211,808,0,1,"a.sham","3","no_press",0,"NGW","noGo",1,187,"3",10,"win","Win","win"
"508","DIVL0216",12,12,11,10,9,2383,756,495,1,"a.sham","3","press",1,"GW","Go",1,188,"3",5,"win","Win","win"
"509","DIVL0216",12,12,11,10,9,2687,927,439,1,"a.sham","3","press",1,"GW","Go",1,189,"3",6,"win","Win","win"
"510","DIVL0216",10,12,11,10,9,1550,961,0,1,"a.sham","3","no_press",0,"NGW","noGo",1,190,"3",11,"win","Win","win"
"511","DIVL0216",11,12,11,10,9,2737,762,0,-1,"a.sham","3","no_press",0,"GAL","Go",0,191,"3",5,"lose","Avoid","lose"
"512","DIVL0216",11,12,11,10,9,1306,776,540,-1,"a.sham","3","press",1,"GAL","Go",1,192,"3",6,"lose","Avoid","lose"
"513","DIVL0216",11,12,11,10,9,1629,873,426,0,"a.sham","3","press",1,"GAL","Go",1,193,"3",7,"neutral","Avoid",NA
"514","DIVL0216",9,12,11,10,9,1513,835,0,-1,"a.sham","3","no_press",0,"NGL","noGo",1,194,"3",10,"lose","Avoid","lose"
"515","DIVL0216",11,12,11,10,9,1180,908,525,0,"a.sham","3","press",1,"GAL","Go",1,195,"3",8,"neutral","Avoid",NA
"516","DIVL0216",12,12,11,10,9,1774,866,459,1,"a.sham","3","press",1,"GW","Go",1,196,"3",7,"win","Win","win"
"517","DIVL0216",10,12,11,10,9,1742,747,0,1,"a.sham","3","no_press",0,"NGW","noGo",1,197,"3",12,"win","Win","win"
"518","DIVL0216",11,12,11,10,9,2493,634,522,-1,"a.sham","3","press",1,"GAL","Go",1,198,"3",9,"lose","Avoid","lose"
"519","DIVL0216",9,12,11,10,9,1804,762,0,0,"a.sham","3","no_press",0,"NGL","noGo",1,199,"3",11,"neutral","Avoid",NA
"520","DIVL0216",12,12,11,10,9,1659,735,385,1,"a.sham","3","press",1,"GW","Go",1,200,"3",8,"win","Win","win"
"521","DIVL0216",9,12,11,10,9,1367,929,0,0,"a.sham","3","no_press",0,"NGL","noGo",1,201,"3",12,"neutral","Avoid",NA
"522","DIVL0216",11,12,11,10,9,1522,587,469,-1,"a.sham","3","press",1,"GAL","Go",1,202,"3",10,"lose","Avoid","lose"
"523","DIVL0216",12,12,11,10,9,2579,722,470,1,"a.sham","3","press",1,"GW","Go",1,203,"3",9,"win","Win","win"
"524","DIVL0216",10,12,11,10,9,2394,575,0,0,"a.sham","3","no_press",0,"NGW","noGo",1,204,"3",13,"neutral","Win",NA
"525","DIVL0216",11,12,11,10,9,1260,744,438,0,"a.sham","3","press",1,"GAL","Go",1,205,"3",11,"neutral","Avoid",NA
"526","DIVL0216",12,12,11,10,9,1638,587,395,0,"a.sham","3","press",1,"GW","Go",1,206,"3",10,"neutral","Win",NA
"527","DIVL0216",11,12,11,10,9,2093,614,460,0,"a.sham","3","press",1,"GAL","Go",1,207,"3",12,"neutral","Avoid",NA
"528","DIVL0216",11,12,11,10,9,1772,900,575,0,"a.sham","3","press",1,"GAL","Go",1,208,"3",13,"neutral","Avoid",NA
"529","DIVL0216",9,12,11,10,9,2300,979,0,0,"a.sham","3","no_press",0,"NGL","noGo",1,209,"3",13,"neutral","Avoid",NA
"530","DIVL0216",11,12,11,10,9,1265,790,354,0,"a.sham","3","press",1,"GAL","Go",1,210,"3",14,"neutral","Avoid",NA
"531","DIVL0216",12,12,11,10,9,1564,786,408,1,"a.sham","3","press",1,"GW","Go",1,211,"3",11,"win","Win","win"
"532","DIVL0216",9,12,11,10,9,1929,602,0,0,"a.sham","3","no_press",0,"NGL","noGo",1,212,"3",14,"neutral","Avoid",NA
"533","DIVL0216",11,12,11,10,9,2559,936,431,0,"a.sham","3","press",1,"GAL","Go",1,213,"3",15,"neutral","Avoid",NA
"534","DIVL0216",9,12,11,10,9,2164,681,0,0,"a.sham","3","no_press",0,"NGL","noGo",1,214,"3",15,"neutral","Avoid",NA
"535","DIVL0216",12,12,11,10,9,2550,673,391,1,"a.sham","3","press",1,"GW","Go",1,215,"3",12,"win","Win","win"
"536","DIVL0216",10,12,11,10,9,1259,775,0,1,"a.sham","3","no_press",0,"NGW","noGo",1,216,"3",14,"win","Win","win"
"537","DIVL0216",10,12,11,10,9,2125,783,0,1,"a.sham","3","no_press",0,"NGW","noGo",1,217,"3",15,"win","Win","win"
"538","DIVL0216",9,12,11,10,9,1892,763,0,0,"a.sham","3","no_press",0,"NGL","noGo",1,218,"3",16,"neutral","Avoid",NA
"539","DIVL0216",11,12,11,10,9,2923,970,425,0,"a.sham","3","press",1,"GAL","Go",1,219,"3",16,"neutral","Avoid",NA
"540","DIVL0216",9,12,11,10,9,2297,884,0,0,"a.sham","3","no_press",0,"NGL","noGo",1,220,"3",17,"neutral","Avoid",NA
"541","DIVL0216",11,12,11,10,9,1835,770,378,0,"a.sham","3","press",1,"GAL","Go",1,221,"3",17,"neutral","Avoid",NA
"542","DIVL0216",12,12,11,10,9,2199,881,440,1,"a.sham","3","press",1,"GW","Go",1,222,"3",13,"win","Win","win"
"543","DIVL0216",12,12,11,10,9,2330,567,385,1,"a.sham","3","press",1,"GW","Go",1,223,"3",14,"win","Win","win"
"544","DIVL0216",12,12,11,10,9,2208,988,345,0,"a.sham","3","press",1,"GW","Go",1,224,"3",15,"neutral","Win",NA
"545","DIVL0216",12,12,11,10,9,1433,895,363,1,"a.sham","3","press",1,"GW","Go",1,225,"3",16,"win","Win","win"
"546","DIVL0216",11,12,11,10,9,1819,824,455,0,"a.sham","3","press",1,"GAL","Go",1,226,"3",18,"neutral","Avoid",NA
"547","DIVL0216",12,12,11,10,9,1807,531,392,1,"a.sham","3","press",1,"GW","Go",1,227,"3",17,"win","Win","win"
"548","DIVL0216",12,12,11,10,9,3457,922,394,0,"a.sham","3","press",1,"GW","Go",1,228,"3",18,"neutral","Win",NA
"549","DIVL0216",9,12,11,10,9,1933,747,0,0,"a.sham","3","no_press",0,"NGL","noGo",1,229,"3",18,"neutral","Avoid",NA
"550","DIVL0216",11,12,11,10,9,2343,526,463,0,"a.sham","3","press",1,"GAL","Go",1,230,"3",19,"neutral","Avoid",NA
"551","DIVL0216",10,12,11,10,9,1873,732,0,1,"a.sham","3","no_press",0,"NGW","noGo",1,231,"3",16,"win","Win","win"
"552","DIVL0216",10,12,11,10,9,1551,840,0,1,"a.sham","3","no_press",0,"NGW","noGo",1,232,"3",17,"win","Win","win"
"553","DIVL0216",12,12,11,10,9,2071,799,428,1,"a.sham","3","press",1,"GW","Go",1,233,"3",19,"win","Win","win"
"554","DIVL0216",12,12,11,10,9,1305,715,351,1,"a.sham","3","press",1,"GW","Go",1,234,"3",20,"win","Win","win"
"555","DIVL0216",11,12,11,10,9,2022,531,364,0,"a.sham","3","press",1,"GAL","Go",1,235,"3",20,"neutral","Avoid",NA
"556","DIVL0216",9,12,11,10,9,2527,907,0,-1,"a.sham","3","no_press",0,"NGL","noGo",1,236,"3",19,"lose","Avoid","lose"
"557","DIVL0216",10,12,11,10,9,1801,644,0,1,"a.sham","3","no_press",0,"NGW","noGo",1,237,"3",18,"win","Win","win"
"558","DIVL0216",10,12,11,10,9,1485,550,0,1,"a.sham","3","no_press",0,"NGW","noGo",1,238,"3",19,"win","Win","win"
"559","DIVL0216",9,12,11,10,9,2134,801,0,0,"a.sham","3","no_press",0,"NGL","noGo",1,239,"3",20,"neutral","Avoid",NA
"560","DIVL0216",10,12,11,10,9,1418,685,0,1,"a.sham","3","no_press",0,"NGW","noGo",1,240,"3",20,"win","Win","win"
"561","DIVL0216",14,14,13,16,15,2415,519,756,1,"a.sham","3","press",1,"GW","Go",1,241,"4",1,"win","Win","win"
"562","DIVL0216",15,14,13,16,15,1965,869,540,-1,"a.sham","3","press",1,"NGL","noGo",0,242,"4",1,"lose","Avoid","lose"
"563","DIVL0216",14,14,13,16,15,2186,553,577,1,"a.sham","3","press",1,"GW","Go",1,243,"4",2,"win","Win","win"
"564","DIVL0216",15,14,13,16,15,1925,693,0,0,"a.sham","3","no_press",0,"NGL","noGo",1,244,"4",2,"neutral","Avoid",NA
"565","DIVL0216",13,14,13,16,15,2174,582,630,0,"a.sham","3","press",1,"GAL","Go",1,245,"4",1,"neutral","Avoid",NA
"566","DIVL0216",15,14,13,16,15,2284,702,0,0,"a.sham","3","no_press",0,"NGL","noGo",1,246,"4",3,"neutral","Avoid",NA
"567","DIVL0216",15,14,13,16,15,1996,791,0,0,"a.sham","3","no_press",0,"NGL","noGo",1,247,"4",4,"neutral","Avoid",NA
"568","DIVL0216",15,14,13,16,15,2671,632,0,0,"a.sham","3","no_press",0,"NGL","noGo",1,248,"4",5,"neutral","Avoid",NA
"569","DIVL0216",14,14,13,16,15,2525,637,428,1,"a.sham","3","press",1,"GW","Go",1,249,"4",3,"win","Win","win"
"570","DIVL0216",13,14,13,16,15,1668,620,0,-1,"a.sham","3","no_press",0,"GAL","Go",0,250,"4",2,"lose","Avoid","lose"
"571","DIVL0216",13,14,13,16,15,2241,762,372,0,"a.sham","3","press",1,"GAL","Go",1,251,"4",3,"neutral","Avoid",NA
"572","DIVL0216",16,14,13,16,15,1708,505,0,1,"a.sham","3","no_press",0,"NGW","noGo",1,252,"4",1,"win","Win","win"
"573","DIVL0216",13,14,13,16,15,2602,953,538,0,"a.sham","3","press",1,"GAL","Go",1,253,"4",4,"neutral","Avoid",NA
"574","DIVL0216",16,14,13,16,15,1418,530,0,1,"a.sham","3","no_press",0,"NGW","noGo",1,254,"4",2,"win","Win","win"
"575","DIVL0216",16,14,13,16,15,1510,811,0,1,"a.sham","3","no_press",0,"NGW","noGo",1,255,"4",3,"win","Win","win"
"576","DIVL0216",16,14,13,16,15,1800,858,0,0,"a.sham","3","no_press",0,"NGW","noGo",1,256,"4",4,"neutral","Win",NA
"577","DIVL0216",15,14,13,16,15,2115,662,0,0,"a.sham","3","no_press",0,"NGL","noGo",1,257,"4",6,"neutral","Avoid",NA
"578","DIVL0216",16,14,13,16,15,2328,934,0,1,"a.sham","3","no_press",0,"NGW","noGo",1,258,"4",5,"win","Win","win"
"579","DIVL0216",16,14,13,16,15,3045,898,0,1,"a.sham","3","no_press",0,"NGW","noGo",1,259,"4",6,"win","Win","win"
"580","DIVL0216",14,14,13,16,15,2031,695,529,0,"a.sham","3","press",1,"GW","Go",1,260,"4",4,"neutral","Win",NA
"581","DIVL0216",15,14,13,16,15,2085,844,0,0,"a.sham","3","no_press",0,"NGL","noGo",1,261,"4",7,"neutral","Avoid",NA
"582","DIVL0216",14,14,13,16,15,1745,817,542,1,"a.sham","3","press",1,"GW","Go",1,262,"4",5,"win","Win","win"
"583","DIVL0216",16,14,13,16,15,2084,766,0,1,"a.sham","3","no_press",0,"NGW","noGo",1,263,"4",7,"win","Win","win"
"584","DIVL0216",16,14,13,16,15,1704,970,0,1,"a.sham","3","no_press",0,"NGW","noGo",1,264,"4",8,"win","Win","win"
"585","DIVL0216",14,14,13,16,15,2038,512,449,1,"a.sham","3","press",1,"GW","Go",1,265,"4",6,"win","Win","win"
"586","DIVL0216",14,14,13,16,15,1935,655,426,1,"a.sham","3","press",1,"GW","Go",1,266,"4",7,"win","Win","win"
"587","DIVL0216",16,14,13,16,15,2434,547,0,1,"a.sham","3","no_press",0,"NGW","noGo",1,267,"4",9,"win","Win","win"
"588","DIVL0216",13,14,13,16,15,2178,962,540,0,"a.sham","3","press",1,"GAL","Go",1,268,"4",5,"neutral","Avoid",NA
"589","DIVL0216",15,14,13,16,15,1748,933,0,-1,"a.sham","3","no_press",0,"NGL","noGo",1,269,"4",8,"lose","Avoid","lose"
"590","DIVL0216",15,14,13,16,15,2687,796,0,0,"a.sham","3","no_press",0,"NGL","noGo",1,270,"4",9,"neutral","Avoid",NA
"591","DIVL0216",16,14,13,16,15,1834,770,0,1,"a.sham","3","no_press",0,"NGW","noGo",1,271,"4",10,"win","Win","win"
"592","DIVL0216",13,14,13,16,15,1722,875,465,0,"a.sham","3","press",1,"GAL","Go",1,272,"4",6,"neutral","Avoid",NA
"593","DIVL0216",16,14,13,16,15,1494,919,0,1,"a.sham","3","no_press",0,"NGW","noGo",1,273,"4",11,"win","Win","win"
"594","DIVL0216",16,14,13,16,15,2267,928,0,1,"a.sham","3","no_press",0,"NGW","noGo",1,274,"4",12,"win","Win","win"
"595","DIVL0216",15,14,13,16,15,2134,755,0,0,"a.sham","3","no_press",0,"NGL","noGo",1,275,"4",10,"neutral","Avoid",NA
"596","DIVL0216",13,14,13,16,15,2100,513,624,0,"a.sham","3","press",1,"GAL","Go",1,276,"4",7,"neutral","Avoid",NA
"597","DIVL0216",14,14,13,16,15,1448,545,476,1,"a.sham","3","press",1,"GW","Go",1,277,"4",8,"win","Win","win"
"598","DIVL0216",14,14,13,16,15,2394,690,417,1,"a.sham","3","press",1,"GW","Go",1,278,"4",9,"win","Win","win"
"599","DIVL0216",13,14,13,16,15,2305,559,479,0,"a.sham","3","press",1,"GAL","Go",1,279,"4",8,"neutral","Avoid",NA
"600","DIVL0216",16,14,13,16,15,1753,645,418,1,"a.sham","3","press",1,"NGW","noGo",0,280,"4",13,"win","Win","win"
"601","DIVL0216",15,14,13,16,15,2211,954,0,0,"a.sham","3","no_press",0,"NGL","noGo",1,281,"4",11,"neutral","Avoid",NA
"602","DIVL0216",15,14,13,16,15,1563,766,0,-1,"a.sham","3","no_press",0,"NGL","noGo",1,282,"4",12,"lose","Avoid","lose"
"603","DIVL0216",16,14,13,16,15,1649,766,0,1,"a.sham","3","no_press",0,"NGW","noGo",1,283,"4",14,"win","Win","win"
"604","DIVL0216",15,14,13,16,15,2816,706,0,0,"a.sham","3","no_press",0,"NGL","noGo",1,284,"4",13,"neutral","Avoid",NA
"605","DIVL0216",13,14,13,16,15,1510,920,535,-1,"a.sham","3","press",1,"GAL","Go",1,285,"4",9,"lose","Avoid","lose"
"606","DIVL0216",13,14,13,16,15,2047,904,466,0,"a.sham","3","press",1,"GAL","Go",1,286,"4",10,"neutral","Avoid",NA
"607","DIVL0216",13,14,13,16,15,3021,503,397,-1,"a.sham","3","press",1,"GAL","Go",1,287,"4",11,"lose","Avoid","lose"
"608","DIVL0216",15,14,13,16,15,1744,548,0,0,"a.sham","3","no_press",0,"NGL","noGo",1,288,"4",14,"neutral","Avoid",NA
"609","DIVL0216",13,14,13,16,15,1658,554,342,0,"a.sham","3","press",1,"GAL","Go",1,289,"4",12,"neutral","Avoid",NA
"610","DIVL0216",14,14,13,16,15,1949,914,430,0,"a.sham","3","press",1,"GW","Go",1,290,"4",10,"neutral","Win",NA
"611","DIVL0216",16,14,13,16,15,1759,730,0,1,"a.sham","3","no_press",0,"NGW","noGo",1,291,"4",15,"win","Win","win"
"612","DIVL0216",14,14,13,16,15,2722,806,392,0,"a.sham","3","press",1,"GW","Go",1,292,"4",11,"neutral","Win",NA
"613","DIVL0216",13,14,13,16,15,1951,861,496,0,"a.sham","3","press",1,"GAL","Go",1,293,"4",13,"neutral","Avoid",NA
"614","DIVL0216",14,14,13,16,15,1817,904,387,1,"a.sham","3","press",1,"GW","Go",1,294,"4",12,"win","Win","win"
"615","DIVL0216",15,14,13,16,15,1918,811,0,0,"a.sham","3","no_press",0,"NGL","noGo",1,295,"4",15,"neutral","Avoid",NA
"616","DIVL0216",15,14,13,16,15,1783,930,0,0,"a.sham","3","no_press",0,"NGL","noGo",1,296,"4",16,"neutral","Avoid",NA
"617","DIVL0216",15,14,13,16,15,1000,717,0,0,"a.sham","3","no_press",0,"NGL","noGo",1,297,"4",17,"neutral","Avoid",NA
"618","DIVL0216",15,14,13,16,15,2184,505,0,-1,"a.sham","3","no_press",0,"NGL","noGo",1,298,"4",18,"lose","Avoid","lose"
"619","DIVL0216",14,14,13,16,15,2327,518,449,1,"a.sham","3","press",1,"GW","Go",1,299,"4",13,"win","Win","win"
"620","DIVL0216",13,14,13,16,15,1916,873,539,0,"a.sham","3","press",1,"GAL","Go",1,300,"4",14,"neutral","Avoid",NA
"621","DIVL0216",15,14,13,16,15,1000,774,0,-1,"a.sham","3","no_press",0,"NGL","noGo",1,301,"4",19,"lose","Avoid","lose"
"622","DIVL0216",14,14,13,16,15,1000,561,464,1,"a.sham","3","press",1,"GW","Go",1,302,"4",14,"win","Win","win"
"623","DIVL0216",16,14,13,16,15,2223,597,0,0,"a.sham","3","no_press",0,"NGW","noGo",1,303,"4",16,"neutral","Win",NA
"624","DIVL0216",13,14,13,16,15,1852,714,681,0,"a.sham","3","press",1,"GAL","Go",1,304,"4",15,"neutral","Avoid",NA
"625","DIVL0216",13,14,13,16,15,2973,614,432,-1,"a.sham","3","press",1,"GAL","Go",1,305,"4",16,"lose","Avoid","lose"
"626","DIVL0216",15,14,13,16,15,1000,534,0,0,"a.sham","3","no_press",0,"NGL","noGo",1,306,"4",20,"neutral","Avoid",NA
"627","DIVL0216",14,14,13,16,15,2498,777,426,1,"a.sham","3","press",1,"GW","Go",1,307,"4",15,"win","Win","win"
"628","DIVL0216",13,14,13,16,15,1548,827,438,0,"a.sham","3","press",1,"GAL","Go",1,308,"4",17,"neutral","Avoid",NA
"629","DIVL0216",16,14,13,16,15,2518,720,0,0,"a.sham","3","no_press",0,"NGW","noGo",1,309,"4",17,"neutral","Win",NA
"630","DIVL0216",13,14,13,16,15,1946,528,508,0,"a.sham","3","press",1,"GAL","Go",1,310,"4",18,"neutral","Avoid",NA
"631","DIVL0216",16,14,13,16,15,1693,890,0,1,"a.sham","3","no_press",0,"NGW","noGo",1,311,"4",18,"win","Win","win"
"632","DIVL0216",14,14,13,16,15,2205,830,489,1,"a.sham","3","press",1,"GW","Go",1,312,"4",16,"win","Win","win"
"633","DIVL0216",14,14,13,16,15,1482,693,480,1,"a.sham","3","press",1,"GW","Go",1,313,"4",17,"win","Win","win"
"634","DIVL0216",16,14,13,16,15,2314,738,0,1,"a.sham","3","no_press",0,"NGW","noGo",1,314,"4",19,"win","Win","win"
"635","DIVL0216",13,14,13,16,15,2393,773,443,0,"a.sham","3","press",1,"GAL","Go",1,315,"4",19,"neutral","Avoid",NA
"636","DIVL0216",13,14,13,16,15,2410,646,419,0,"a.sham","3","press",1,"GAL","Go",1,316,"4",20,"neutral","Avoid",NA
"637","DIVL0216",14,14,13,16,15,1202,606,530,0,"a.sham","3","press",1,"GW","Go",1,317,"4",18,"neutral","Win",NA
"638","DIVL0216",16,14,13,16,15,2235,913,0,1,"a.sham","3","no_press",0,"NGW","noGo",1,318,"4",20,"win","Win","win"
"639","DIVL0216",14,14,13,16,15,2411,650,450,1,"a.sham","3","press",1,"GW","Go",1,319,"4",19,"win","Win","win"
"640","DIVL0216",14,14,13,16,15,2475,986,423,1,"a.sham","3","press",1,"GW","Go",1,320,"4",20,"win","Win","win"
"641","DNHR0900",4,4,3,2,1,1610,657,840,1,"a.sham","2","press",1,"GW","Go",1,1,"1",1,"win","Win","win"
"642","DNHR0900",3,4,3,2,1,1600,514,839,0,"a.sham","2","press",1,"GAL","Go",1,2,"1",1,"neutral","Avoid",NA
"643","DNHR0900",4,4,3,2,1,1660,590,622,1,"a.sham","2","press",1,"GW","Go",1,3,"1",2,"win","Win","win"
"644","DNHR0900",3,4,3,2,1,1582,735,626,0,"a.sham","2","press",1,"GAL","Go",1,4,"1",2,"neutral","Avoid",NA
"645","DNHR0900",4,4,3,2,1,2127,558,477,0,"a.sham","2","press",1,"GW","Go",1,5,"1",3,"neutral","Win",NA
"646","DNHR0900",1,4,3,2,1,1000,671,0,0,"a.sham","2","no_press",0,"NGL","noGo",1,6,"1",1,"neutral","Avoid",NA
"647","DNHR0900",2,4,3,2,1,2031,774,1170,0,"a.sham","2","press",1,"NGW","noGo",0,7,"1",1,"neutral","Win",NA
"648","DNHR0900",4,4,3,2,1,1469,991,582,1,"a.sham","2","press",1,"GW","Go",1,8,"1",4,"win","Win","win"
"649","DNHR0900",4,4,3,2,1,1706,939,649,0,"a.sham","2","press",1,"GW","Go",1,9,"1",5,"neutral","Win",NA
"650","DNHR0900",4,4,3,2,1,2306,829,494,1,"a.sham","2","press",1,"GW","Go",1,10,"1",6,"win","Win","win"
"651","DNHR0900",1,4,3,2,1,1279,967,0,-1,"a.sham","2","no_press",0,"NGL","noGo",1,11,"1",2,"lose","Avoid","lose"
"652","DNHR0900",3,4,3,2,1,2058,678,818,0,"a.sham","2","press",1,"GAL","Go",1,12,"1",3,"neutral","Avoid",NA
"653","DNHR0900",4,4,3,2,1,1567,979,536,1,"a.sham","2","press",1,"GW","Go",1,13,"1",7,"win","Win","win"
"654","DNHR0900",3,4,3,2,1,2147,1000,714,0,"a.sham","2","press",1,"GAL","Go",1,14,"1",4,"neutral","Avoid",NA
"655","DNHR0900",3,4,3,2,1,2209,980,508,-1,"a.sham","2","press",1,"GAL","Go",1,15,"1",5,"lose","Avoid","lose"
"656","DNHR0900",2,4,3,2,1,1775,801,1156,0,"a.sham","2","press",1,"NGW","noGo",0,16,"1",2,"neutral","Win",NA
"657","DNHR0900",2,4,3,2,1,1811,591,0,0,"a.sham","2","no_press",0,"NGW","noGo",1,17,"1",3,"neutral","Win",NA
"658","DNHR0900",1,4,3,2,1,1832,904,532,-1,"a.sham","2","press",1,"NGL","noGo",0,18,"1",3,"lose","Avoid","lose"
"659","DNHR0900",3,4,3,2,1,2289,695,0,-1,"a.sham","2","no_press",0,"GAL","Go",0,19,"1",6,"lose","Avoid","lose"
"660","DNHR0900",3,4,3,2,1,2151,910,497,0,"a.sham","2","press",1,"GAL","Go",1,20,"1",7,"neutral","Avoid",NA
"661","DNHR0900",3,4,3,2,1,1614,675,548,0,"a.sham","2","press",1,"GAL","Go",1,21,"1",8,"neutral","Avoid",NA
"662","DNHR0900",2,4,3,2,1,1857,568,0,0,"a.sham","2","no_press",0,"NGW","noGo",1,22,"1",4,"neutral","Win",NA
"663","DNHR0900",1,4,3,2,1,2086,755,649,-1,"a.sham","2","press",1,"NGL","noGo",0,23,"1",4,"lose","Avoid","lose"
"664","DNHR0900",1,4,3,2,1,2020,780,593,-1,"a.sham","2","press",1,"NGL","noGo",0,24,"1",5,"lose","Avoid","lose"
"665","DNHR0900",4,4,3,2,1,1575,963,576,1,"a.sham","2","press",1,"GW","Go",1,25,"1",8,"win","Win","win"
"666","DNHR0900",3,4,3,2,1,2592,954,660,0,"a.sham","2","press",1,"GAL","Go",1,26,"1",9,"neutral","Avoid",NA
"667","DNHR0900",4,4,3,2,1,1737,937,604,1,"a.sham","2","press",1,"GW","Go",1,27,"1",9,"win","Win","win"
"668","DNHR0900",3,4,3,2,1,1666,658,729,0,"a.sham","2","press",1,"GAL","Go",1,28,"1",10,"neutral","Avoid",NA
"669","DNHR0900",3,4,3,2,1,2266,716,561,0,"a.sham","2","press",1,"GAL","Go",1,29,"1",11,"neutral","Avoid",NA
"670","DNHR0900",1,4,3,2,1,1205,751,0,-1,"a.sham","2","no_press",0,"NGL","noGo",1,30,"1",6,"lose","Avoid","lose"
"671","DNHR0900",1,4,3,2,1,1349,952,690,-1,"a.sham","2","press",1,"NGL","noGo",0,31,"1",7,"lose","Avoid","lose"
"672","DNHR0900",3,4,3,2,1,2572,859,548,-1,"a.sham","2","press",1,"GAL","Go",1,32,"1",12,"lose","Avoid","lose"
"673","DNHR0900",2,4,3,2,1,1611,668,600,0,"a.sham","2","press",1,"NGW","noGo",0,33,"1",5,"neutral","Win",NA
"674","DNHR0900",3,4,3,2,1,1669,919,740,0,"a.sham","2","press",1,"GAL","Go",1,34,"1",13,"neutral","Avoid",NA
"675","DNHR0900",1,4,3,2,1,1759,927,951,-1,"a.sham","2","press",1,"NGL","noGo",0,35,"1",8,"lose","Avoid","lose"
"676","DNHR0900",1,4,3,2,1,2086,535,0,0,"a.sham","2","no_press",0,"NGL","noGo",1,36,"1",9,"neutral","Avoid",NA
"677","DNHR0900",1,4,3,2,1,2374,938,0,0,"a.sham","2","no_press",0,"NGL","noGo",1,37,"1",10,"neutral","Avoid",NA
"678","DNHR0900",4,4,3,2,1,1759,730,596,0,"a.sham","2","press",1,"GW","Go",1,38,"1",10,"neutral","Win",NA
"679","DNHR0900",2,4,3,2,1,2371,972,0,1,"a.sham","2","no_press",0,"NGW","noGo",1,39,"1",6,"win","Win","win"
"680","DNHR0900",1,4,3,2,1,2087,674,0,0,"a.sham","2","no_press",0,"NGL","noGo",1,40,"1",11,"neutral","Avoid",NA
"681","DNHR0900",4,4,3,2,1,1418,976,541,1,"a.sham","2","press",1,"GW","Go",1,41,"1",11,"win","Win","win"
"682","DNHR0900",1,4,3,2,1,2734,545,0,0,"a.sham","2","no_press",0,"NGL","noGo",1,42,"1",12,"neutral","Avoid",NA
"683","DNHR0900",4,4,3,2,1,1636,845,529,1,"a.sham","2","press",1,"GW","Go",1,43,"1",12,"win","Win","win"
"684","DNHR0900",3,4,3,2,1,2053,752,777,0,"a.sham","2","press",1,"GAL","Go",1,44,"1",14,"neutral","Avoid",NA
"685","DNHR0900",1,4,3,2,1,2040,514,0,0,"a.sham","2","no_press",0,"NGL","noGo",1,45,"1",13,"neutral","Avoid",NA
"686","DNHR0900",4,4,3,2,1,1967,867,560,1,"a.sham","2","press",1,"GW","Go",1,46,"1",13,"win","Win","win"
"687","DNHR0900",2,4,3,2,1,1502,889,0,1,"a.sham","2","no_press",0,"NGW","noGo",1,47,"1",7,"win","Win","win"
"688","DNHR0900",1,4,3,2,1,1318,627,0,0,"a.sham","2","no_press",0,"NGL","noGo",1,48,"1",14,"neutral","Avoid",NA
"689","DNHR0900",2,4,3,2,1,2185,997,0,1,"a.sham","2","no_press",0,"NGW","noGo",1,49,"1",8,"win","Win","win"
"690","DNHR0900",2,4,3,2,1,1592,541,0,1,"a.sham","2","no_press",0,"NGW","noGo",1,50,"1",9,"win","Win","win"
"691","DNHR0900",4,4,3,2,1,1873,984,523,1,"a.sham","2","press",1,"GW","Go",1,51,"1",14,"win","Win","win"
"692","DNHR0900",3,4,3,2,1,2547,796,707,0,"a.sham","2","press",1,"GAL","Go",1,52,"1",15,"neutral","Avoid",NA
"693","DNHR0900",2,4,3,2,1,1749,975,0,1,"a.sham","2","no_press",0,"NGW","noGo",1,53,"1",10,"win","Win","win"
"694","DNHR0900",2,4,3,2,1,2527,535,0,0,"a.sham","2","no_press",0,"NGW","noGo",1,54,"1",11,"neutral","Win",NA
"695","DNHR0900",4,4,3,2,1,1427,939,645,1,"a.sham","2","press",1,"GW","Go",1,55,"1",15,"win","Win","win"
"696","DNHR0900",2,4,3,2,1,2305,944,0,1,"a.sham","2","no_press",0,"NGW","noGo",1,56,"1",12,"win","Win","win"
"697","DNHR0900",2,4,3,2,1,2184,777,0,0,"a.sham","2","no_press",0,"NGW","noGo",1,57,"1",13,"neutral","Win",NA
"698","DNHR0900",2,4,3,2,1,2403,669,0,1,"a.sham","2","no_press",0,"NGW","noGo",1,58,"1",14,"win","Win","win"
"699","DNHR0900",1,4,3,2,1,1720,892,0,0,"a.sham","2","no_press",0,"NGL","noGo",1,59,"1",15,"neutral","Avoid",NA
"700","DNHR0900",3,4,3,2,1,2222,682,396,-1,"a.sham","2","press",1,"GAL","Go",1,60,"1",16,"lose","Avoid","lose"
"701","DNHR0900",4,4,3,2,1,1815,759,448,1,"a.sham","2","press",1,"GW","Go",1,61,"1",16,"win","Win","win"
"702","DNHR0900",1,4,3,2,1,2140,542,0,0,"a.sham","2","no_press",0,"NGL","noGo",1,62,"1",16,"neutral","Avoid",NA
"703","DNHR0900",1,4,3,2,1,1655,736,0,0,"a.sham","2","no_press",0,"NGL","noGo",1,63,"1",17,"neutral","Avoid",NA
"704","DNHR0900",4,4,3,2,1,2572,820,684,1,"a.sham","2","press",1,"GW","Go",1,64,"1",17,"win","Win","win"
"705","DNHR0900",2,4,3,2,1,1528,634,0,1,"a.sham","2","no_press",0,"NGW","noGo",1,65,"1",15,"win","Win","win"
"706","DNHR0900",4,4,3,2,1,1871,742,446,0,"a.sham","2","press",1,"GW","Go",1,66,"1",18,"neutral","Win",NA
"707","DNHR0900",2,4,3,2,1,2048,937,0,1,"a.sham","2","no_press",0,"NGW","noGo",1,67,"1",16,"win","Win","win"
"708","DNHR0900",2,4,3,2,1,2550,934,0,1,"a.sham","2","no_press",0,"NGW","noGo",1,68,"1",17,"win","Win","win"
"709","DNHR0900",2,4,3,2,1,2080,981,0,1,"a.sham","2","no_press",0,"NGW","noGo",1,69,"1",18,"win","Win","win"
"710","DNHR0900",2,4,3,2,1,3094,790,0,1,"a.sham","2","no_press",0,"NGW","noGo",1,70,"1",19,"win","Win","win"
"711","DNHR0900",2,4,3,2,1,3057,866,0,1,"a.sham","2","no_press",0,"NGW","noGo",1,71,"1",20,"win","Win","win"
"712","DNHR0900",1,4,3,2,1,1997,986,0,-1,"a.sham","2","no_press",0,"NGL","noGo",1,72,"1",18,"lose","Avoid","lose"
"713","DNHR0900",4,4,3,2,1,2293,665,560,1,"a.sham","2","press",1,"GW","Go",1,73,"1",19,"win","Win","win"
"714","DNHR0900",3,4,3,2,1,1792,600,665,-1,"a.sham","2","press",1,"GAL","Go",1,74,"1",17,"lose","Avoid","lose"
"715","DNHR0900",4,4,3,2,1,1531,647,581,1,"a.sham","2","press",1,"GW","Go",1,75,"1",20,"win","Win","win"
"716","DNHR0900",3,4,3,2,1,2709,948,0,-1,"a.sham","2","no_press",0,"GAL","Go",0,76,"1",18,"lose","Avoid","lose"
"717","DNHR0900",3,4,3,2,1,2818,601,467,0,"a.sham","2","press",1,"GAL","Go",1,77,"1",19,"neutral","Avoid",NA
"718","DNHR0900",1,4,3,2,1,1794,846,0,0,"a.sham","2","no_press",0,"NGL","noGo",1,78,"1",19,"neutral","Avoid",NA
"719","DNHR0900",1,4,3,2,1,1736,973,0,0,"a.sham","2","no_press",0,"NGL","noGo",1,79,"1",20,"neutral","Avoid",NA
"720","DNHR0900",3,4,3,2,1,2014,737,1130,0,"a.sham","2","press",1,"GAL","Go",1,80,"1",20,"neutral","Avoid",NA
"721","DNHR0900",8,6,7,8,5,1544,895,915,0,"a.sham","2","press",1,"NGW","noGo",0,81,"2",1,"neutral","Win",NA
"722","DNHR0900",8,6,7,8,5,1900,984,619,0,"a.sham","2","press",1,"NGW","noGo",0,82,"2",2,"neutral","Win",NA
"723","DNHR0900",8,6,7,8,5,3107,813,538,0,"a.sham","2","press",1,"NGW","noGo",0,83,"2",3,"neutral","Win",NA
"724","DNHR0900",5,6,7,8,5,1528,962,1117,-1,"a.sham","2","press",1,"NGL","noGo",0,84,"2",1,"lose","Avoid","lose"
"725","DNHR0900",5,6,7,8,5,2211,563,0,0,"a.sham","2","no_press",0,"NGL","noGo",1,85,"2",2,"neutral","Avoid",NA
"726","DNHR0900",8,6,7,8,5,2276,587,489,0,"a.sham","2","press",1,"NGW","noGo",0,86,"2",4,"neutral","Win",NA
"727","DNHR0900",7,6,7,8,5,1300,871,836,0,"a.sham","2","press",1,"GAL","Go",1,87,"2",1,"neutral","Avoid",NA
"728","DNHR0900",7,6,7,8,5,2107,614,783,0,"a.sham","2","press",1,"GAL","Go",1,88,"2",2,"neutral","Avoid",NA
"729","DNHR0900",8,6,7,8,5,1585,879,567,0,"a.sham","2","press",1,"NGW","noGo",0,89,"2",5,"neutral","Win",NA
"730","DNHR0900",8,6,7,8,5,1512,688,576,1,"a.sham","2","press",1,"NGW","noGo",0,90,"2",6,"win","Win","win"
"731","DNHR0900",5,6,7,8,5,1573,781,0,0,"a.sham","2","no_press",0,"NGL","noGo",1,91,"2",3,"neutral","Avoid",NA
"732","DNHR0900",6,6,7,8,5,1400,759,698,1,"a.sham","2","press",1,"GW","Go",1,92,"2",1,"win","Win","win"
"733","DNHR0900",7,6,7,8,5,2435,885,927,-1,"a.sham","2","press",1,"GAL","Go",1,93,"2",3,"lose","Avoid","lose"
"734","DNHR0900",5,6,7,8,5,1277,564,0,0,"a.sham","2","no_press",0,"NGL","noGo",1,94,"2",4,"neutral","Avoid",NA
"735","DNHR0900",8,6,7,8,5,1439,992,470,0,"a.sham","2","press",1,"NGW","noGo",0,95,"2",7,"neutral","Win",NA
"736","DNHR0900",6,6,7,8,5,1000,723,643,1,"a.sham","2","press",1,"GW","Go",1,96,"2",2,"win","Win","win"
"737","DNHR0900",7,6,7,8,5,1503,719,0,-1,"a.sham","2","no_press",0,"GAL","Go",0,97,"2",4,"lose","Avoid","lose"
"738","DNHR0900",7,6,7,8,5,2564,616,566,-1,"a.sham","2","press",1,"GAL","Go",1,98,"2",5,"lose","Avoid","lose"
"739","DNHR0900",6,6,7,8,5,1469,663,592,1,"a.sham","2","press",1,"GW","Go",1,99,"2",3,"win","Win","win"
"740","DNHR0900",7,6,7,8,5,2255,614,875,-1,"a.sham","2","press",1,"GAL","Go",1,100,"2",6,"lose","Avoid","lose"
"741","DNHR0900",5,6,7,8,5,1637,967,0,0,"a.sham","2","no_press",0,"NGL","noGo",1,101,"2",5,"neutral","Avoid",NA
"742","DNHR0900",6,6,7,8,5,2251,501,552,1,"a.sham","2","press",1,"GW","Go",1,102,"2",4,"win","Win","win"
"743","DNHR0900",5,6,7,8,5,1755,533,0,0,"a.sham","2","no_press",0,"NGL","noGo",1,103,"2",6,"neutral","Avoid",NA
"744","DNHR0900",8,6,7,8,5,3367,523,426,0,"a.sham","2","press",1,"NGW","noGo",0,104,"2",8,"neutral","Win",NA
"745","DNHR0900",6,6,7,8,5,1861,942,721,0,"a.sham","2","press",1,"GW","Go",1,105,"2",5,"neutral","Win",NA
"746","DNHR0900",7,6,7,8,5,1880,970,0,-1,"a.sham","2","no_press",0,"GAL","Go",0,106,"2",7,"lose","Avoid","lose"
"747","DNHR0900",8,6,7,8,5,2008,1000,542,0,"a.sham","2","press",1,"NGW","noGo",0,107,"2",9,"neutral","Win",NA
"748","DNHR0900",5,6,7,8,5,2958,599,0,0,"a.sham","2","no_press",0,"NGL","noGo",1,108,"2",7,"neutral","Avoid",NA
"749","DNHR0900",8,6,7,8,5,2331,618,598,1,"a.sham","2","press",1,"NGW","noGo",0,109,"2",10,"win","Win","win"
"750","DNHR0900",7,6,7,8,5,2520,641,0,-1,"a.sham","2","no_press",0,"GAL","Go",0,110,"2",8,"lose","Avoid","lose"
"751","DNHR0900",6,6,7,8,5,2190,694,469,1,"a.sham","2","press",1,"GW","Go",1,111,"2",6,"win","Win","win"
"752","DNHR0900",8,6,7,8,5,2121,743,494,1,"a.sham","2","press",1,"NGW","noGo",0,112,"2",11,"win","Win","win"
"753","DNHR0900",6,6,7,8,5,1556,945,1054,1,"a.sham","2","press",1,"GW","Go",1,113,"2",7,"win","Win","win"
"754","DNHR0900",8,6,7,8,5,2054,558,848,0,"a.sham","2","press",1,"NGW","noGo",0,114,"2",12,"neutral","Win",NA
"755","DNHR0900",7,6,7,8,5,1953,774,0,-1,"a.sham","2","no_press",0,"GAL","Go",0,115,"2",9,"lose","Avoid","lose"
"756","DNHR0900",7,6,7,8,5,1841,779,1204,-1,"a.sham","2","press",1,"GAL","Go",1,116,"2",10,"lose","Avoid","lose"
"757","DNHR0900",7,6,7,8,5,3539,595,980,0,"a.sham","2","press",1,"GAL","Go",1,117,"2",11,"neutral","Avoid",NA
"758","DNHR0900",8,6,7,8,5,2767,613,525,1,"a.sham","2","press",1,"NGW","noGo",0,118,"2",13,"win","Win","win"
"759","DNHR0900",6,6,7,8,5,2649,658,553,1,"a.sham","2","press",1,"GW","Go",1,119,"2",8,"win","Win","win"
"760","DNHR0900",6,6,7,8,5,1758,875,570,1,"a.sham","2","press",1,"GW","Go",1,120,"2",9,"win","Win","win"
"761","DNHR0900",5,6,7,8,5,1720,689,0,-1,"a.sham","2","no_press",0,"NGL","noGo",1,121,"2",8,"lose","Avoid","lose"
"762","DNHR0900",7,6,7,8,5,2289,570,765,0,"a.sham","2","press",1,"GAL","Go",1,122,"2",12,"neutral","Avoid",NA
"763","DNHR0900",5,6,7,8,5,1478,907,1209,-1,"a.sham","2","press",1,"NGL","noGo",0,123,"2",9,"lose","Avoid","lose"
"764","DNHR0900",8,6,7,8,5,1851,770,598,0,"a.sham","2","press",1,"NGW","noGo",0,124,"2",14,"neutral","Win",NA
"765","DNHR0900",8,6,7,8,5,1844,914,598,0,"a.sham","2","press",1,"NGW","noGo",0,125,"2",15,"neutral","Win",NA
"766","DNHR0900",7,6,7,8,5,3243,576,763,0,"a.sham","2","press",1,"GAL","Go",1,126,"2",13,"neutral","Avoid",NA
"767","DNHR0900",5,6,7,8,5,1978,709,0,0,"a.sham","2","no_press",0,"NGL","noGo",1,127,"2",10,"neutral","Avoid",NA
"768","DNHR0900",6,6,7,8,5,2374,553,460,0,"a.sham","2","press",1,"GW","Go",1,128,"2",10,"neutral","Win",NA
"769","DNHR0900",8,6,7,8,5,2128,576,580,0,"a.sham","2","press",1,"NGW","noGo",0,129,"2",16,"neutral","Win",NA
"770","DNHR0900",5,6,7,8,5,2335,596,0,-1,"a.sham","2","no_press",0,"NGL","noGo",1,130,"2",11,"lose","Avoid","lose"
"771","DNHR0900",8,6,7,8,5,2898,538,721,0,"a.sham","2","press",1,"NGW","noGo",0,131,"2",17,"neutral","Win",NA
"772","DNHR0900",8,6,7,8,5,2086,932,1104,0,"a.sham","2","press",1,"NGW","noGo",0,132,"2",18,"neutral","Win",NA
"773","DNHR0900",7,6,7,8,5,1615,741,1116,0,"a.sham","2","press",1,"GAL","Go",1,133,"2",14,"neutral","Avoid",NA
"774","DNHR0900",5,6,7,8,5,1841,935,1105,-1,"a.sham","2","press",1,"NGL","noGo",0,134,"2",12,"lose","Avoid","lose"
"775","DNHR0900",6,6,7,8,5,2009,720,903,1,"a.sham","2","press",1,"GW","Go",1,135,"2",11,"win","Win","win"
"776","DNHR0900",6,6,7,8,5,2689,799,831,1,"a.sham","2","press",1,"GW","Go",1,136,"2",12,"win","Win","win"
"777","DNHR0900",5,6,7,8,5,2503,925,0,0,"a.sham","2","no_press",0,"NGL","noGo",1,137,"2",13,"neutral","Avoid",NA
"778","DNHR0900",6,6,7,8,5,2642,938,645,0,"a.sham","2","press",1,"GW","Go",1,138,"2",13,"neutral","Win",NA
"779","DNHR0900",8,6,7,8,5,2484,932,580,0,"a.sham","2","press",1,"NGW","noGo",0,139,"2",19,"neutral","Win",NA
"780","DNHR0900",6,6,7,8,5,2076,762,597,1,"a.sham","2","press",1,"GW","Go",1,140,"2",14,"win","Win","win"
"781","DNHR0900",7,6,7,8,5,2442,623,488,0,"a.sham","2","press",1,"GAL","Go",1,141,"2",15,"neutral","Avoid",NA
"782","DNHR0900",6,6,7,8,5,1474,625,596,1,"a.sham","2","press",1,"GW","Go",1,142,"2",15,"win","Win","win"
"783","DNHR0900",7,6,7,8,5,1710,527,630,0,"a.sham","2","press",1,"GAL","Go",1,143,"2",16,"neutral","Avoid",NA
"784","DNHR0900",5,6,7,8,5,1576,633,0,0,"a.sham","2","no_press",0,"NGL","noGo",1,144,"2",14,"neutral","Avoid",NA
"785","DNHR0900",6,6,7,8,5,1979,976,605,1,"a.sham","2","press",1,"GW","Go",1,145,"2",16,"win","Win","win"
"786","DNHR0900",5,6,7,8,5,2039,1000,0,0,"a.sham","2","no_press",0,"NGL","noGo",1,146,"2",15,"neutral","Avoid",NA
"787","DNHR0900",5,6,7,8,5,1510,687,0,0,"a.sham","2","no_press",0,"NGL","noGo",1,147,"2",16,"neutral","Avoid",NA
"788","DNHR0900",5,6,7,8,5,2100,741,0,0,"a.sham","2","no_press",0,"NGL","noGo",1,148,"2",17,"neutral","Avoid",NA
"789","DNHR0900",6,6,7,8,5,2525,734,530,1,"a.sham","2","press",1,"GW","Go",1,149,"2",17,"win","Win","win"
"790","DNHR0900",6,6,7,8,5,1779,577,533,1,"a.sham","2","press",1,"GW","Go",1,150,"2",18,"win","Win","win"
"791","DNHR0900",5,6,7,8,5,1526,859,0,-1,"a.sham","2","no_press",0,"NGL","noGo",1,151,"2",18,"lose","Avoid","lose"
"792","DNHR0900",8,6,7,8,5,2800,677,548,0,"a.sham","2","press",1,"NGW","noGo",0,152,"2",20,"neutral","Win",NA
"793","DNHR0900",7,6,7,8,5,3659,819,450,0,"a.sham","2","press",1,"GAL","Go",1,153,"2",17,"neutral","Avoid",NA
"794","DNHR0900",7,6,7,8,5,1547,572,711,0,"a.sham","2","press",1,"GAL","Go",1,154,"2",18,"neutral","Avoid",NA
"795","DNHR0900",5,6,7,8,5,1565,550,0,0,"a.sham","2","no_press",0,"NGL","noGo",1,155,"2",19,"neutral","Avoid",NA
"796","DNHR0900",7,6,7,8,5,2202,739,0,-1,"a.sham","2","no_press",0,"GAL","Go",0,156,"2",19,"lose","Avoid","lose"
"797","DNHR0900",7,6,7,8,5,1988,974,438,0,"a.sham","2","press",1,"GAL","Go",1,157,"2",20,"neutral","Avoid",NA
"798","DNHR0900",5,6,7,8,5,2231,567,0,0,"a.sham","2","no_press",0,"NGL","noGo",1,158,"2",20,"neutral","Avoid",NA
"799","DNHR0900",6,6,7,8,5,1834,837,544,1,"a.sham","2","press",1,"GW","Go",1,159,"2",19,"win","Win","win"
"800","DNHR0900",6,6,7,8,5,1000,910,652,0,"a.sham","2","press",1,"GW","Go",1,160,"2",20,"neutral","Win",NA
"801","DNHR0900",12,12,11,10,9,1823,836,653,1,"a.sham","2","press",1,"GW","Go",1,161,"3",1,"win","Win","win"
"802","DNHR0900",11,12,11,10,9,3460,929,830,0,"a.sham","2","press",1,"GAL","Go",1,162,"3",1,"neutral","Avoid",NA
"803","DNHR0900",10,12,11,10,9,2102,998,0,1,"a.sham","2","no_press",0,"NGW","noGo",1,163,"3",1,"win","Win","win"
"804","DNHR0900",11,12,11,10,9,1631,640,821,-1,"a.sham","2","press",1,"GAL","Go",1,164,"3",2,"lose","Avoid","lose"
"805","DNHR0900",12,12,11,10,9,3075,542,631,1,"a.sham","2","press",1,"GW","Go",1,165,"3",2,"win","Win","win"
"806","DNHR0900",12,12,11,10,9,1838,845,1140,1,"a.sham","2","press",1,"GW","Go",1,166,"3",3,"win","Win","win"
"807","DNHR0900",9,12,11,10,9,2420,526,0,-1,"a.sham","2","no_press",0,"NGL","noGo",1,167,"3",1,"lose","Avoid","lose"
"808","DNHR0900",9,12,11,10,9,1671,831,427,-1,"a.sham","2","press",1,"NGL","noGo",0,168,"3",2,"lose","Avoid","lose"
"809","DNHR0900",12,12,11,10,9,1286,667,680,1,"a.sham","2","press",1,"GW","Go",1,169,"3",4,"win","Win","win"
"810","DNHR0900",10,12,11,10,9,1770,896,0,1,"a.sham","2","no_press",0,"NGW","noGo",1,170,"3",2,"win","Win","win"
"811","DNHR0900",9,12,11,10,9,1576,750,705,-1,"a.sham","2","press",1,"NGL","noGo",0,171,"3",3,"lose","Avoid","lose"
"812","DNHR0900",9,12,11,10,9,1984,757,0,0,"a.sham","2","no_press",0,"NGL","noGo",1,172,"3",4,"neutral","Avoid",NA
"813","DNHR0900",11,12,11,10,9,1782,805,0,-1,"a.sham","2","no_press",0,"GAL","Go",0,173,"3",3,"lose","Avoid","lose"
"814","DNHR0900",10,12,11,10,9,2229,885,0,1,"a.sham","2","no_press",0,"NGW","noGo",1,174,"3",3,"win","Win","win"
"815","DNHR0900",9,12,11,10,9,1584,644,0,0,"a.sham","2","no_press",0,"NGL","noGo",1,175,"3",5,"neutral","Avoid",NA
"816","DNHR0900",11,12,11,10,9,2640,504,457,-1,"a.sham","2","press",1,"GAL","Go",1,176,"3",4,"lose","Avoid","lose"
"817","DNHR0900",10,12,11,10,9,2298,543,0,1,"a.sham","2","no_press",0,"NGW","noGo",1,177,"3",4,"win","Win","win"
"818","DNHR0900",12,12,11,10,9,3435,660,539,0,"a.sham","2","press",1,"GW","Go",1,178,"3",5,"neutral","Win",NA
"819","DNHR0900",11,12,11,10,9,2398,783,0,-1,"a.sham","2","no_press",0,"GAL","Go",0,179,"3",5,"lose","Avoid","lose"
"820","DNHR0900",12,12,11,10,9,1497,835,859,1,"a.sham","2","press",1,"GW","Go",1,180,"3",6,"win","Win","win"
"821","DNHR0900",9,12,11,10,9,1500,558,0,-1,"a.sham","2","no_press",0,"NGL","noGo",1,181,"3",6,"lose","Avoid","lose"
"822","DNHR0900",9,12,11,10,9,1000,543,0,0,"a.sham","2","no_press",0,"NGL","noGo",1,182,"3",7,"neutral","Avoid",NA
"823","DNHR0900",12,12,11,10,9,2071,732,488,1,"a.sham","2","press",1,"GW","Go",1,183,"3",7,"win","Win","win"
"824","DNHR0900",9,12,11,10,9,2958,507,0,0,"a.sham","2","no_press",0,"NGL","noGo",1,184,"3",8,"neutral","Avoid",NA
"825","DNHR0900",9,12,11,10,9,2936,771,0,0,"a.sham","2","no_press",0,"NGL","noGo",1,185,"3",9,"neutral","Avoid",NA
"826","DNHR0900",10,12,11,10,9,2355,674,0,1,"a.sham","2","no_press",0,"NGW","noGo",1,186,"3",5,"win","Win","win"
"827","DNHR0900",9,12,11,10,9,2065,999,0,0,"a.sham","2","no_press",0,"NGL","noGo",1,187,"3",10,"neutral","Avoid",NA
"828","DNHR0900",12,12,11,10,9,2180,587,681,1,"a.sham","2","press",1,"GW","Go",1,188,"3",8,"win","Win","win"
"829","DNHR0900",11,12,11,10,9,1782,806,0,-1,"a.sham","2","no_press",0,"GAL","Go",0,189,"3",6,"lose","Avoid","lose"
"830","DNHR0900",11,12,11,10,9,2332,669,399,0,"a.sham","2","press",1,"GAL","Go",1,190,"3",7,"neutral","Avoid",NA
"831","DNHR0900",11,12,11,10,9,1254,552,646,0,"a.sham","2","press",1,"GAL","Go",1,191,"3",8,"neutral","Avoid",NA
"832","DNHR0900",10,12,11,10,9,2822,746,0,1,"a.sham","2","no_press",0,"NGW","noGo",1,192,"3",6,"win","Win","win"
"833","DNHR0900",9,12,11,10,9,2078,890,0,0,"a.sham","2","no_press",0,"NGL","noGo",1,193,"3",11,"neutral","Avoid",NA
"834","DNHR0900",9,12,11,10,9,1960,905,0,0,"a.sham","2","no_press",0,"NGL","noGo",1,194,"3",12,"neutral","Avoid",NA
"835","DNHR0900",10,12,11,10,9,1238,993,0,1,"a.sham","2","no_press",0,"NGW","noGo",1,195,"3",7,"win","Win","win"
"836","DNHR0900",10,12,11,10,9,2324,874,0,1,"a.sham","2","no_press",0,"NGW","noGo",1,196,"3",8,"win","Win","win"
"837","DNHR0900",10,12,11,10,9,2460,659,0,0,"a.sham","2","no_press",0,"NGW","noGo",1,197,"3",9,"neutral","Win",NA
"838","DNHR0900",10,12,11,10,9,1874,826,0,1,"a.sham","2","no_press",0,"NGW","noGo",1,198,"3",10,"win","Win","win"
"839","DNHR0900",12,12,11,10,9,1723,812,611,0,"a.sham","2","press",1,"GW","Go",1,199,"3",9,"neutral","Win",NA
"840","DNHR0900",12,12,11,10,9,1504,944,779,1,"a.sham","2","press",1,"GW","Go",1,200,"3",10,"win","Win","win"
"841","DNHR0900",9,12,11,10,9,1522,989,0,0,"a.sham","2","no_press",0,"NGL","noGo",1,201,"3",13,"neutral","Avoid",NA
"842","DNHR0900",9,12,11,10,9,2273,773,0,0,"a.sham","2","no_press",0,"NGL","noGo",1,202,"3",14,"neutral","Avoid",NA
"843","DNHR0900",11,12,11,10,9,2194,802,1108,0,"a.sham","2","press",1,"GAL","Go",1,203,"3",9,"neutral","Avoid",NA
"844","DNHR0900",10,12,11,10,9,1246,823,0,1,"a.sham","2","no_press",0,"NGW","noGo",1,204,"3",11,"win","Win","win"
"845","DNHR0900",9,12,11,10,9,1733,857,0,0,"a.sham","2","no_press",0,"NGL","noGo",1,205,"3",15,"neutral","Avoid",NA
"846","DNHR0900",9,12,11,10,9,2243,501,0,0,"a.sham","2","no_press",0,"NGL","noGo",1,206,"3",16,"neutral","Avoid",NA
"847","DNHR0900",12,12,11,10,9,2599,965,955,1,"a.sham","2","press",1,"GW","Go",1,207,"3",11,"win","Win","win"
"848","DNHR0900",12,12,11,10,9,2365,987,626,0,"a.sham","2","press",1,"GW","Go",1,208,"3",12,"neutral","Win",NA
"849","DNHR0900",12,12,11,10,9,2413,980,652,1,"a.sham","2","press",1,"GW","Go",1,209,"3",13,"win","Win","win"
"850","DNHR0900",11,12,11,10,9,2587,699,766,-1,"a.sham","2","press",1,"GAL","Go",1,210,"3",10,"lose","Avoid","lose"
"851","DNHR0900",12,12,11,10,9,1247,865,649,1,"a.sham","2","press",1,"GW","Go",1,211,"3",14,"win","Win","win"
"852","DNHR0900",10,12,11,10,9,1880,860,0,0,"a.sham","2","no_press",0,"NGW","noGo",1,212,"3",12,"neutral","Win",NA
"853","DNHR0900",11,12,11,10,9,1368,554,875,0,"a.sham","2","press",1,"GAL","Go",1,213,"3",11,"neutral","Avoid",NA
"854","DNHR0900",11,12,11,10,9,1623,596,742,0,"a.sham","2","press",1,"GAL","Go",1,214,"3",12,"neutral","Avoid",NA
"855","DNHR0900",10,12,11,10,9,2354,678,0,0,"a.sham","2","no_press",0,"NGW","noGo",1,215,"3",13,"neutral","Win",NA
"856","DNHR0900",10,12,11,10,9,2678,731,0,1,"a.sham","2","no_press",0,"NGW","noGo",1,216,"3",14,"win","Win","win"
"857","DNHR0900",12,12,11,10,9,1813,929,868,1,"a.sham","2","press",1,"GW","Go",1,217,"3",15,"win","Win","win"
"858","DNHR0900",9,12,11,10,9,2247,525,0,-1,"a.sham","2","no_press",0,"NGL","noGo",1,218,"3",17,"lose","Avoid","lose"
"859","DNHR0900",11,12,11,10,9,1386,986,831,0,"a.sham","2","press",1,"GAL","Go",1,219,"3",13,"neutral","Avoid",NA
"860","DNHR0900",10,12,11,10,9,2422,628,0,1,"a.sham","2","no_press",0,"NGW","noGo",1,220,"3",15,"win","Win","win"
"861","DNHR0900",11,12,11,10,9,1922,556,772,-1,"a.sham","2","press",1,"GAL","Go",1,221,"3",14,"lose","Avoid","lose"
"862","DNHR0900",11,12,11,10,9,1975,997,863,0,"a.sham","2","press",1,"GAL","Go",1,222,"3",15,"neutral","Avoid",NA
"863","DNHR0900",9,12,11,10,9,1832,597,0,0,"a.sham","2","no_press",0,"NGL","noGo",1,223,"3",18,"neutral","Avoid",NA
"864","DNHR0900",12,12,11,10,9,2057,656,818,1,"a.sham","2","press",1,"GW","Go",1,224,"3",16,"win","Win","win"
"865","DNHR0900",11,12,11,10,9,2244,899,795,0,"a.sham","2","press",1,"GAL","Go",1,225,"3",16,"neutral","Avoid",NA
"866","DNHR0900",12,12,11,10,9,2521,668,587,0,"a.sham","2","press",1,"GW","Go",1,226,"3",17,"neutral","Win",NA
"867","DNHR0900",11,12,11,10,9,1856,768,719,0,"a.sham","2","press",1,"GAL","Go",1,227,"3",17,"neutral","Avoid",NA
"868","DNHR0900",11,12,11,10,9,2668,759,727,0,"a.sham","2","press",1,"GAL","Go",1,228,"3",18,"neutral","Avoid",NA
"869","DNHR0900",12,12,11,10,9,1819,934,613,1,"a.sham","2","press",1,"GW","Go",1,229,"3",18,"win","Win","win"
"870","DNHR0900",12,12,11,10,9,1301,691,533,1,"a.sham","2","press",1,"GW","Go",1,230,"3",19,"win","Win","win"
"871","DNHR0900",12,12,11,10,9,1892,603,763,1,"a.sham","2","press",1,"GW","Go",1,231,"3",20,"win","Win","win"
"872","DNHR0900",10,12,11,10,9,1874,591,0,1,"a.sham","2","no_press",0,"NGW","noGo",1,232,"3",16,"win","Win","win"
"873","DNHR0900",10,12,11,10,9,1898,526,0,0,"a.sham","2","no_press",0,"NGW","noGo",1,233,"3",17,"neutral","Win",NA
"874","DNHR0900",9,12,11,10,9,1551,797,0,0,"a.sham","2","no_press",0,"NGL","noGo",1,234,"3",19,"neutral","Avoid",NA
"875","DNHR0900",11,12,11,10,9,2907,814,577,0,"a.sham","2","press",1,"GAL","Go",1,235,"3",19,"neutral","Avoid",NA
"876","DNHR0900",10,12,11,10,9,1485,703,0,1,"a.sham","2","no_press",0,"NGW","noGo",1,236,"3",18,"win","Win","win"
"877","DNHR0900",11,12,11,10,9,1000,644,863,0,"a.sham","2","press",1,"GAL","Go",1,237,"3",20,"neutral","Avoid",NA
"878","DNHR0900",9,12,11,10,9,2511,751,0,0,"a.sham","2","no_press",0,"NGL","noGo",1,238,"3",20,"neutral","Avoid",NA
"879","DNHR0900",10,12,11,10,9,1788,923,0,1,"a.sham","2","no_press",0,"NGW","noGo",1,239,"3",19,"win","Win","win"
"880","DNHR0900",10,12,11,10,9,1743,807,0,1,"a.sham","2","no_press",0,"NGW","noGo",1,240,"3",20,"win","Win","win"
"881","DNHR0900",13,16,15,14,13,2334,517,504,-1,"a.sham","2","press",1,"NGL","noGo",0,241,"4",1,"lose","Avoid","lose"
"882","DNHR0900",13,16,15,14,13,1382,746,0,0,"a.sham","2","no_press",0,"NGL","noGo",1,242,"4",2,"neutral","Avoid",NA
"883","DNHR0900",13,16,15,14,13,1510,735,0,0,"a.sham","2","no_press",0,"NGL","noGo",1,243,"4",3,"neutral","Avoid",NA
"884","DNHR0900",15,16,15,14,13,1343,681,550,0,"a.sham","2","press",1,"GAL","Go",1,244,"4",1,"neutral","Avoid",NA
"885","DNHR0900",14,16,15,14,13,2074,978,1029,1,"a.sham","2","press",1,"NGW","noGo",0,245,"4",1,"win","Win","win"
"886","DNHR0900",14,16,15,14,13,2926,906,550,0,"a.sham","2","press",1,"NGW","noGo",0,246,"4",2,"neutral","Win",NA
"887","DNHR0900",14,16,15,14,13,1638,931,761,0,"a.sham","2","press",1,"NGW","noGo",0,247,"4",3,"neutral","Win",NA
"888","DNHR0900",16,16,15,14,13,2507,733,0,0,"a.sham","2","no_press",0,"GW","Go",0,248,"4",1,"neutral","Win",NA
