"","ID","stim_ID","GW","GAL","NGW","NGL","jitter1","jitter2","RT","outcomefeed","condition","session","response","GoResponse","Cue","req_action","correct","trial_number","block","TrialCount","feedback","OutValence","salient","followup_beha","correct_feedback","followup_response"
"1","AAAA0432",3,4,1,2,3,3457,848,1331,-1,"a.sham","3","press",1,"NGL","noGo",0,1,"1",1,"lose","Avoid","lose","no_press",1,"no_press"
"2","AAAA0432",4,4,1,2,3,2602,576,1186,1,"a.sham","3","press",1,"GW","Go",1,2,"1",1,"win","Win","win","press",1,"press"
"3","AAAA0432",1,4,1,2,3,2628,920,771,0,"a.sham","3","press",1,"GAL","Go",1,3,"1",1,"neutral","Avoid",NA,"press",1,"press"
"4","AAAA0432",1,4,1,2,3,2136,865,996,0,"a.sham","3","press",1,"GAL","Go",1,4,"1",2,"neutral","Avoid",NA,"no_press",1,"no_press"
"5","AAAA0432",4,4,1,2,3,2518,585,711,1,"a.sham","3","press",1,"GW","Go",1,5,"1",2,"win","Win","win","press",1,"press"
"6","AAAA0432",2,4,1,2,3,2038,688,1088,1,"a.sham","3","press",1,"NGW","noGo",0,6,"1",1,"win","Win","win","no_press",0,NA
"7","AAAA0432",3,4,1,2,3,2200,872,0,0,"a.sham","3","no_press",0,"NGL","noGo",1,7,"1",2,"neutral","Avoid",NA,"no_press",1,"no_press"
"8","AAAA0432",1,4,1,2,3,2047,707,0,-1,"a.sham","3","no_press",0,"GAL","Go",0,8,"1",3,"lose","Avoid","lose","no_press",1,"no_press"
"9","AAAA0432",3,4,1,2,3,2178,832,0,0,"a.sham","3","no_press",0,"NGL","noGo",1,9,"1",3,"neutral","Avoid",NA,"no_press",1,"no_press"
"10","AAAA0432",4,4,1,2,3,2480,753,628,1,"a.sham","3","press",1,"GW","Go",1,10,"1",3,"win","Win","win","press",1,"press"
"11","AAAA0432",2,4,1,2,3,2659,603,0,1,"a.sham","3","no_press",0,"NGW","noGo",1,11,"1",2,"win","Win","win","press",1,"press"
"12","AAAA0432",2,4,1,2,3,2454,882,904,1,"a.sham","3","press",1,"NGW","noGo",0,12,"1",3,"win","Win","win","press",0,NA
"13","AAAA0432",4,4,1,2,3,2103,894,822,1,"a.sham","3","press",1,"GW","Go",1,13,"1",4,"win","Win","win","press",1,"press"
"14","AAAA0432",3,4,1,2,3,1659,928,0,0,"a.sham","3","no_press",0,"NGL","noGo",1,14,"1",4,"neutral","Avoid",NA,"no_press",1,"no_press"
"15","AAAA0432",1,4,1,2,3,2428,751,0,-1,"a.sham","3","no_press",0,"GAL","Go",0,15,"1",4,"lose","Avoid","lose","no_press",1,"no_press"
"16","AAAA0432",2,4,1,2,3,1819,665,991,0,"a.sham","3","press",1,"NGW","noGo",0,16,"1",4,"neutral","Win",NA,"no_press",1,"no_press"
"17","AAAA0432",4,4,1,2,3,2015,938,682,1,"a.sham","3","press",1,"GW","Go",1,17,"1",5,"win","Win","win","press",1,"press"
"18","AAAA0432",3,4,1,2,3,1727,538,0,-1,"a.sham","3","no_press",0,"NGL","noGo",1,18,"1",5,"lose","Avoid","lose","no_press",0,NA
"19","AAAA0432",1,4,1,2,3,1745,687,0,-1,"a.sham","3","no_press",0,"GAL","Go",0,19,"1",5,"lose","Avoid","lose","press",1,"press"
"20","AAAA0432",2,4,1,2,3,1840,907,0,1,"a.sham","3","no_press",0,"NGW","noGo",1,20,"1",5,"win","Win","win","no_press",1,"no_press"
"21","AAAA0432",3,4,1,2,3,2137,733,0,0,"a.sham","3","no_press",0,"NGL","noGo",1,21,"1",6,"neutral","Avoid",NA,"no_press",1,"no_press"
"22","AAAA0432",3,4,1,2,3,1759,785,0,-1,"a.sham","3","no_press",0,"NGL","noGo",1,22,"1",7,"lose","Avoid","lose","no_press",0,NA
"23","AAAA0432",4,4,1,2,3,1918,894,640,1,"a.sham","3","press",1,"GW","Go",1,23,"1",6,"win","Win","win","press",1,"press"
"24","AAAA0432",1,4,1,2,3,1783,895,791,0,"a.sham","3","press",1,"GAL","Go",1,24,"1",6,"neutral","Avoid",NA,"press",1,"press"
"25","AAAA0432",1,4,1,2,3,1180,789,1426,0,"a.sham","3","press",1,"GAL","Go",1,25,"1",7,"neutral","Avoid",NA,"press",1,"press"
"26","AAAA0432",3,4,1,2,3,1744,844,0,0,"a.sham","3","no_press",0,"NGL","noGo",1,26,"1",8,"neutral","Avoid",NA,"no_press",1,"no_press"
"27","AAAA0432",4,4,1,2,3,1996,648,521,1,"a.sham","3","press",1,"GW","Go",1,27,"1",7,"win","Win","win","press",1,"press"
"28","AAAA0432",3,4,1,2,3,2199,852,0,0,"a.sham","3","no_press",0,"NGL","noGo",1,28,"1",9,"neutral","Avoid",NA,"no_press",1,"no_press"
"29","AAAA0432",2,4,1,2,3,2158,677,0,0,"a.sham","3","no_press",0,"NGW","noGo",1,29,"1",6,"neutral","Win",NA,"no_press",0,NA
"30","AAAA0432",2,4,1,2,3,2415,812,0,1,"a.sham","3","no_press",0,"NGW","noGo",1,30,"1",7,"win","Win","win","no_press",1,"no_press"
"31","AAAA0432",4,4,1,2,3,1265,576,600,0,"a.sham","3","press",1,"GW","Go",1,31,"1",8,"neutral","Win",NA,"press",0,NA
"32","AAAA0432",2,4,1,2,3,1982,526,0,1,"a.sham","3","no_press",0,"NGW","noGo",1,32,"1",8,"win","Win","win","no_press",1,"no_press"
"33","AAAA0432",2,4,1,2,3,2632,891,0,1,"a.sham","3","no_press",0,"NGW","noGo",1,33,"1",9,"win","Win","win","no_press",1,"no_press"
"34","AAAA0432",2,4,1,2,3,1752,602,0,0,"a.sham","3","no_press",0,"NGW","noGo",1,34,"1",10,"neutral","Win",NA,"no_press",0,NA
"35","AAAA0432",3,4,1,2,3,2174,709,0,0,"a.sham","3","no_press",0,"NGL","noGo",1,35,"1",10,"neutral","Avoid",NA,"no_press",1,"no_press"
"36","AAAA0432",1,4,1,2,3,1617,747,849,0,"a.sham","3","press",1,"GAL","Go",1,36,"1",8,"neutral","Avoid",NA,"press",1,"press"
"37","AAAA0432",4,4,1,2,3,1551,511,588,1,"a.sham","3","press",1,"GW","Go",1,37,"1",9,"win","Win","win","press",1,"press"
"38","AAAA0432",2,4,1,2,3,2267,883,0,1,"a.sham","3","no_press",0,"NGW","noGo",1,38,"1",11,"win","Win","win","no_press",1,"no_press"
"39","AAAA0432",4,4,1,2,3,1823,626,570,0,"a.sham","3","press",1,"GW","Go",1,39,"1",10,"neutral","Win",NA,"press",0,NA
"40","AAAA0432",2,4,1,2,3,2247,604,0,1,"a.sham","3","no_press",0,"NGW","noGo",1,40,"1",12,"win","Win","win","no_press",1,"no_press"
"41","AAAA0432",3,4,1,2,3,1708,636,0,0,"a.sham","3","no_press",0,"NGL","noGo",1,41,"1",11,"neutral","Avoid",NA,"no_press",1,"no_press"
"42","AAAA0432",2,4,1,2,3,1768,709,0,1,"a.sham","3","no_press",0,"NGW","noGo",1,42,"1",13,"win","Win","win","no_press",1,"no_press"
"43","AAAA0432",1,4,1,2,3,1832,958,566,0,"a.sham","3","press",1,"GAL","Go",1,43,"1",9,"neutral","Avoid",NA,"press",1,"press"
"44","AAAA0432",4,4,1,2,3,1486,839,531,1,"a.sham","3","press",1,"GW","Go",1,44,"1",11,"win","Win","win","press",1,"press"
"45","AAAA0432",4,4,1,2,3,1653,914,555,1,"a.sham","3","press",1,"GW","Go",1,45,"1",12,"win","Win","win","press",1,"press"
"46","AAAA0432",4,4,1,2,3,2115,773,722,1,"a.sham","3","press",1,"GW","Go",1,46,"1",13,"win","Win","win","press",1,"press"
"47","AAAA0432",4,4,1,2,3,1548,972,513,0,"a.sham","3","press",1,"GW","Go",1,47,"1",14,"neutral","Win",NA,"press",0,NA
"48","AAAA0432",4,4,1,2,3,2035,768,546,1,"a.sham","3","press",1,"GW","Go",1,48,"1",15,"win","Win","win","press",1,"press"
"49","AAAA0432",2,4,1,2,3,2083,903,0,1,"a.sham","3","no_press",0,"NGW","noGo",1,49,"1",14,"win","Win","win","no_press",1,"no_press"
"50","AAAA0432",3,4,1,2,3,1744,711,0,0,"a.sham","3","no_press",0,"NGL","noGo",1,50,"1",12,"neutral","Avoid",NA,"no_press",1,"no_press"
"51","AAAA0432",3,4,1,2,3,2307,721,0,0,"a.sham","3","no_press",0,"NGL","noGo",1,51,"1",13,"neutral","Avoid",NA,"no_press",1,"no_press"
"52","AAAA0432",3,4,1,2,3,1711,948,0,0,"a.sham","3","no_press",0,"NGL","noGo",1,52,"1",14,"neutral","Avoid",NA,"no_press",1,"no_press"
"53","AAAA0432",1,4,1,2,3,5000,916,663,0,"a.sham","3","press",1,"GAL","Go",1,53,"1",10,"neutral","Avoid",NA,"press",1,"press"
"54","AAAA0432",1,4,1,2,3,1617,554,433,-1,"a.sham","3","press",1,"GAL","Go",1,54,"1",11,"lose","Avoid","lose","press",0,NA
"55","AAAA0432",1,4,1,2,3,1815,930,412,0,"a.sham","3","press",1,"GAL","Go",1,55,"1",12,"neutral","Avoid",NA,"press",1,"press"
"56","AAAA0432",1,4,1,2,3,2300,838,452,-1,"a.sham","3","press",1,"GAL","Go",1,56,"1",13,"lose","Avoid","lose","press",0,NA
"57","AAAA0432",3,4,1,2,3,1633,763,0,0,"a.sham","3","no_press",0,"NGL","noGo",1,57,"1",15,"neutral","Avoid",NA,"no_press",1,"no_press"
"58","AAAA0432",3,4,1,2,3,1487,534,0,-1,"a.sham","3","no_press",0,"NGL","noGo",1,58,"1",16,"lose","Avoid","lose","no_press",0,NA
"59","AAAA0432",1,4,1,2,3,2235,513,575,0,"a.sham","3","press",1,"GAL","Go",1,59,"1",14,"neutral","Avoid",NA,"press",1,"press"
"60","AAAA0432",2,4,1,2,3,2125,598,0,1,"a.sham","3","no_press",0,"NGW","noGo",1,60,"1",15,"win","Win","win","no_press",1,"no_press"
"61","AAAA0432",2,4,1,2,3,2527,525,0,1,"a.sham","3","no_press",0,"NGW","noGo",1,61,"1",16,"win","Win","win","no_press",1,"no_press"
"62","AAAA0432",1,4,1,2,3,1000,555,738,0,"a.sham","3","press",1,"GAL","Go",1,62,"1",15,"neutral","Avoid",NA,"press",1,"press"
"63","AAAA0432",2,4,1,2,3,2172,897,0,1,"a.sham","3","no_press",0,"NGW","noGo",1,63,"1",17,"win","Win","win","no_press",1,"no_press"
"64","AAAA0432",2,4,1,2,3,1817,928,0,1,"a.sham","3","no_press",0,"NGW","noGo",1,64,"1",18,"win","Win","win","no_press",1,"no_press"
"65","AAAA0432",4,4,1,2,3,1761,799,521,1,"a.sham","3","press",1,"GW","Go",1,65,"1",16,"win","Win","win","press",1,"press"
"66","AAAA0432",3,4,1,2,3,1222,709,0,0,"a.sham","3","no_press",0,"NGL","noGo",1,66,"1",17,"neutral","Avoid",NA,"no_press",1,"no_press"
"67","AAAA0432",2,4,1,2,3,2314,738,0,1,"a.sham","3","no_press",0,"NGW","noGo",1,67,"1",19,"win","Win","win","no_press",1,"no_press"
"68","AAAA0432",1,4,1,2,3,1486,575,572,-1,"a.sham","3","press",1,"GAL","Go",1,68,"1",16,"lose","Avoid","lose","press",0,NA
"69","AAAA0432",2,4,1,2,3,1949,871,0,1,"a.sham","3","no_press",0,"NGW","noGo",1,69,"1",20,"win","Win","win","press",1,"press"
"70","AAAA0432",1,4,1,2,3,1260,536,483,0,"a.sham","3","press",1,"GAL","Go",1,70,"1",17,"neutral","Avoid",NA,"press",1,"press"
"71","AAAA0432",4,4,1,2,3,2308,835,593,1,"a.sham","3","press",1,"GW","Go",1,71,"1",17,"win","Win","win","press",1,"press"
"72","AAAA0432",1,4,1,2,3,1573,630,580,0,"a.sham","3","press",1,"GAL","Go",1,72,"1",18,"neutral","Avoid",NA,"press",1,"press"
"73","AAAA0432",3,4,1,2,3,2757,825,0,-1,"a.sham","3","no_press",0,"NGL","noGo",1,73,"1",18,"lose","Avoid","lose","no_press",0,NA
"74","AAAA0432",1,4,1,2,3,1916,892,629,0,"a.sham","3","press",1,"GAL","Go",1,74,"1",19,"neutral","Avoid",NA,"press",1,"press"
"75","AAAA0432",4,4,1,2,3,1852,964,517,1,"a.sham","3","press",1,"GW","Go",1,75,"1",18,"win","Win","win","press",1,"press"
"76","AAAA0432",1,4,1,2,3,2964,511,618,0,"a.sham","3","press",1,"GAL","Go",1,76,"1",20,"neutral","Avoid",NA,"no_press",1,"no_press"
"77","AAAA0432",4,4,1,2,3,1834,571,529,1,"a.sham","3","press",1,"GW","Go",1,77,"1",19,"win","Win","win","press",1,"press"
"78","AAAA0432",3,4,1,2,3,1306,764,0,0,"a.sham","3","no_press",0,"NGL","noGo",1,78,"1",19,"neutral","Avoid",NA,"no_press",1,"no_press"
"79","AAAA0432",4,4,1,2,3,1658,761,504,0,"a.sham","3","press",1,"GW","Go",1,79,"1",20,"neutral","Win",NA,"press",0,NA
"80","AAAA0432",3,4,1,2,3,2224,915,0,0,"a.sham","3","no_press",0,"NGL","noGo",1,80,"1",20,"neutral","Avoid",NA,"no_press",1,"no_press"
"81","AAAA0432",6,6,7,8,5,2134,762,636,1,"a.sham","3","press",1,"GW","Go",1,81,"2",1,"win","Win","win","press",1,"press"
"82","AAAA0432",8,6,7,8,5,1196,946,1050,0,"a.sham","3","press",1,"NGW","noGo",0,82,"2",1,"neutral","Win",NA,"press",1,"press"
"83","AAAA0432",7,6,7,8,5,2100,565,0,-1,"a.sham","3","no_press",0,"GAL","Go",0,83,"2",1,"lose","Avoid","lose","press",1,"press"
"84","AAAA0432",8,6,7,8,5,1000,899,1394,0,"a.sham","3","press",1,"NGW","noGo",0,84,"2",2,"neutral","Win",NA,"no_press",1,"no_press"
"85","AAAA0432",5,6,7,8,5,1773,504,0,-1,"a.sham","3","no_press",0,"NGL","noGo",1,85,"2",1,"lose","Avoid","lose","no_press",0,NA
"86","AAAA0432",8,6,7,8,5,1616,842,0,1,"a.sham","3","no_press",0,"NGW","noGo",1,86,"2",3,"win","Win","win","no_press",1,"no_press"
"87","AAAA0432",5,6,7,8,5,3073,892,0,0,"a.sham","3","no_press",0,"NGL","noGo",1,87,"2",2,"neutral","Avoid",NA,"no_press",1,"no_press"
"88","AAAA0432",5,6,7,8,5,2327,869,0,0,"a.sham","3","no_press",0,"NGL","noGo",1,88,"2",3,"neutral","Avoid",NA,"no_press",1,"no_press"
"89","AAAA0432",7,6,7,8,5,1933,967,1067,-1,"a.sham","3","press",1,"GAL","Go",1,89,"2",2,"lose","Avoid","lose","no_press",0,NA
"90","AAAA0432",7,6,7,8,5,1182,803,0,-1,"a.sham","3","no_press",0,"GAL","Go",0,90,"2",3,"lose","Avoid","lose","press",1,"press"
"91","AAAA0432",7,6,7,8,5,1876,954,507,0,"a.sham","3","press",1,"GAL","Go",1,91,"2",4,"neutral","Avoid",NA,"press",1,"press"
"92","AAAA0432",5,6,7,8,5,1518,875,0,0,"a.sham","3","no_press",0,"NGL","noGo",1,92,"2",4,"neutral","Avoid",NA,"no_press",1,"no_press"
"93","AAAA0432",6,6,7,8,5,1838,900,650,1,"a.sham","3","press",1,"GW","Go",1,93,"2",2,"win","Win","win","press",1,"press"
"94","AAAA0432",6,6,7,8,5,2353,715,505,1,"a.sham","3","press",1,"GW","Go",1,94,"2",3,"win","Win","win","press",1,"press"
"95","AAAA0432",8,6,7,8,5,2547,820,0,1,"a.sham","3","no_press",0,"NGW","noGo",1,95,"2",4,"win","Win","win","no_press",1,"no_press"
"96","AAAA0432",5,6,7,8,5,1807,557,0,-1,"a.sham","3","no_press",0,"NGL","noGo",1,96,"2",5,"lose","Avoid","lose","no_press",0,NA
"97","AAAA0432",7,6,7,8,5,2198,989,1010,0,"a.sham","3","press",1,"GAL","Go",1,97,"2",5,"neutral","Avoid",NA,"press",1,"press"
"98","AAAA0432",6,6,7,8,5,1867,957,462,0,"a.sham","3","press",1,"GW","Go",1,98,"2",4,"neutral","Win",NA,"press",0,NA
"99","AAAA0432",6,6,7,8,5,1000,872,519,1,"a.sham","3","press",1,"GW","Go",1,99,"2",5,"win","Win","win","press",1,"press"
"100","AAAA0432",6,6,7,8,5,1928,718,553,1,"a.sham","3","press",1,"GW","Go",1,100,"2",6,"win","Win","win","press",1,"press"
"101","AAAA0432",7,6,7,8,5,1638,962,748,0,"a.sham","3","press",1,"GAL","Go",1,101,"2",6,"neutral","Avoid",NA,"press",1,"press"
"102","AAAA0432",7,6,7,8,5,1259,905,610,0,"a.sham","3","press",1,"GAL","Go",1,102,"2",7,"neutral","Avoid",NA,"press",1,"press"
"103","AAAA0432",8,6,7,8,5,3087,838,0,1,"a.sham","3","no_press",0,"NGW","noGo",1,103,"2",5,"win","Win","win","no_press",1,"no_press"
"104","AAAA0432",6,6,7,8,5,2184,613,719,1,"a.sham","3","press",1,"GW","Go",1,104,"2",7,"win","Win","win","press",1,"press"
"105","AAAA0432",6,6,7,8,5,3444,562,631,1,"a.sham","3","press",1,"GW","Go",1,105,"2",8,"win","Win","win","press",1,"press"
"106","AAAA0432",8,6,7,8,5,1857,854,0,1,"a.sham","3","no_press",0,"NGW","noGo",1,106,"2",6,"win","Win","win","no_press",1,"no_press"
"107","AAAA0432",7,6,7,8,5,1657,949,683,-1,"a.sham","3","press",1,"GAL","Go",1,107,"2",8,"lose","Avoid","lose","press",0,NA
"108","AAAA0432",7,6,7,8,5,1584,946,529,0,"a.sham","3","press",1,"GAL","Go",1,108,"2",9,"neutral","Avoid",NA,"press",1,"press"
"109","AAAA0432",8,6,7,8,5,1279,923,0,0,"a.sham","3","no_press",0,"NGW","noGo",1,109,"2",7,"neutral","Win",NA,"no_press",0,NA
"110","AAAA0432",7,6,7,8,5,1000,622,797,0,"a.sham","3","press",1,"GAL","Go",1,110,"2",10,"neutral","Avoid",NA,"press",1,"press"
"111","AAAA0432",8,6,7,8,5,1530,814,0,0,"a.sham","3","no_press",0,"NGW","noGo",1,111,"2",8,"neutral","Win",NA,"no_press",0,NA
"112","AAAA0432",8,6,7,8,5,1756,572,0,1,"a.sham","3","no_press",0,"NGW","noGo",1,112,"2",9,"win","Win","win","no_press",1,"no_press"
"113","AAAA0432",8,6,7,8,5,1000,968,0,1,"a.sham","3","no_press",0,"NGW","noGo",1,113,"2",10,"win","Win","win","no_press",1,"no_press"
"114","AAAA0432",8,6,7,8,5,2205,669,0,1,"a.sham","3","no_press",0,"NGW","noGo",1,114,"2",11,"win","Win","win","no_press",1,"no_press"
"115","AAAA0432",5,6,7,8,5,1574,867,0,0,"a.sham","3","no_press",0,"NGL","noGo",1,115,"2",6,"neutral","Avoid",NA,"no_press",1,"no_press"
"116","AAAA0432",5,6,7,8,5,2355,664,0,0,"a.sham","3","no_press",0,"NGL","noGo",1,116,"2",7,"neutral","Avoid",NA,"no_press",1,"no_press"
"117","AAAA0432",5,6,7,8,5,2186,843,0,0,"a.sham","3","no_press",0,"NGL","noGo",1,117,"2",8,"neutral","Avoid",NA,"no_press",1,"no_press"
"118","AAAA0432",8,6,7,8,5,2090,564,0,1,"a.sham","3","no_press",0,"NGW","noGo",1,118,"2",12,"win","Win","win","no_press",1,"no_press"
"119","AAAA0432",6,6,7,8,5,1929,747,441,1,"a.sham","3","press",1,"GW","Go",1,119,"2",9,"win","Win","win","press",1,"press"
"120","AAAA0432",8,6,7,8,5,2383,548,0,1,"a.sham","3","no_press",0,"NGW","noGo",1,120,"2",13,"win","Win","win","no_press",1,"no_press"
"121","AAAA0432",6,6,7,8,5,1321,820,1053,1,"a.sham","3","press",1,"GW","Go",1,121,"2",10,"win","Win","win","press",1,"press"
"122","AAAA0432",8,6,7,8,5,1469,877,0,1,"a.sham","3","no_press",0,"NGW","noGo",1,122,"2",14,"win","Win","win","no_press",1,"no_press"
"123","AAAA0432",7,6,7,8,5,2134,627,664,-1,"a.sham","3","press",1,"GAL","Go",1,123,"2",11,"lose","Avoid","lose","press",0,NA
"124","AAAA0432",6,6,7,8,5,2712,773,862,1,"a.sham","3","press",1,"GW","Go",1,124,"2",11,"win","Win","win","press",1,"press"
"125","AAAA0432",6,6,7,8,5,1774,933,411,1,"a.sham","3","press",1,"GW","Go",1,125,"2",12,"win","Win","win","press",1,"press"
"126","AAAA0432",8,6,7,8,5,2223,514,0,1,"a.sham","3","no_press",0,"NGW","noGo",1,126,"2",15,"win","Win","win","no_press",1,"no_press"
"127","AAAA0432",6,6,7,8,5,2446,990,575,1,"a.sham","3","press",1,"GW","Go",1,127,"2",13,"win","Win","win","press",1,"press"
"128","AAAA0432",5,6,7,8,5,2022,855,0,0,"a.sham","3","no_press",0,"NGL","noGo",1,128,"2",9,"neutral","Avoid",NA,"no_press",1,"no_press"
"129","AAAA0432",8,6,7,8,5,3465,587,0,0,"a.sham","3","no_press",0,"NGW","noGo",1,129,"2",16,"neutral","Win",NA,"no_press",0,NA
"130","AAAA0432",5,6,7,8,5,1776,631,0,0,"a.sham","3","no_press",0,"NGL","noGo",1,130,"2",10,"neutral","Avoid",NA,"no_press",1,"no_press"
"131","AAAA0432",5,6,7,8,5,3377,576,0,0,"a.sham","3","no_press",0,"NGL","noGo",1,131,"2",11,"neutral","Avoid",NA,"no_press",1,"no_press"
"132","AAAA0432",7,6,7,8,5,3256,810,695,0,"a.sham","3","press",1,"GAL","Go",1,132,"2",12,"neutral","Avoid",NA,"press",1,"press"
"133","AAAA0432",5,6,7,8,5,2188,741,0,0,"a.sham","3","no_press",0,"NGL","noGo",1,133,"2",12,"neutral","Avoid",NA,"no_press",1,"no_press"
"134","AAAA0432",5,6,7,8,5,1522,617,0,0,"a.sham","3","no_press",0,"NGL","noGo",1,134,"2",13,"neutral","Avoid",NA,"no_press",1,"no_press"
"135","AAAA0432",6,6,7,8,5,2103,518,403,1,"a.sham","3","press",1,"GW","Go",1,135,"2",14,"win","Win","win","press",1,"press"
"136","AAAA0432",7,6,7,8,5,2502,799,452,0,"a.sham","3","press",1,"GAL","Go",1,136,"2",13,"neutral","Avoid",NA,"press",1,"press"
"137","AAAA0432",7,6,7,8,5,1183,918,566,0,"a.sham","3","press",1,"GAL","Go",1,137,"2",14,"neutral","Avoid",NA,"press",1,"press"
"138","AAAA0432",7,6,7,8,5,3021,616,438,0,"a.sham","3","press",1,"GAL","Go",1,138,"2",15,"neutral","Avoid",NA,"press",1,"press"
"139","AAAA0432",6,6,7,8,5,3396,926,542,0,"a.sham","3","press",1,"GW","Go",1,139,"2",15,"neutral","Win",NA,"press",0,NA
"140","AAAA0432",6,6,7,8,5,1929,618,520,1,"a.sham","3","press",1,"GW","Go",1,140,"2",16,"win","Win","win","press",1,"press"
"141","AAAA0432",7,6,7,8,5,1211,805,564,0,"a.sham","3","press",1,"GAL","Go",1,141,"2",16,"neutral","Avoid",NA,"press",1,"press"
"142","AAAA0432",6,6,7,8,5,2394,817,583,1,"a.sham","3","press",1,"GW","Go",1,142,"2",17,"win","Win","win","press",1,"press"
"143","AAAA0432",7,6,7,8,5,1491,892,487,0,"a.sham","3","press",1,"GAL","Go",1,143,"2",17,"neutral","Avoid",NA,"press",1,"press"
"144","AAAA0432",5,6,7,8,5,1491,756,0,0,"a.sham","3","no_press",0,"NGL","noGo",1,144,"2",14,"neutral","Avoid",NA,"no_press",1,"no_press"
"145","AAAA0432",7,6,7,8,5,2498,771,675,0,"a.sham","3","press",1,"GAL","Go",1,145,"2",18,"neutral","Avoid",NA,"press",1,"press"
"146","AAAA0432",5,6,7,8,5,1791,687,0,0,"a.sham","3","no_press",0,"NGL","noGo",1,146,"2",15,"neutral","Avoid",NA,"no_press",1,"no_press"
"147","AAAA0432",7,6,7,8,5,1951,939,611,-1,"a.sham","3","press",1,"GAL","Go",1,147,"2",19,"lose","Avoid","lose","press",0,NA
"148","AAAA0432",8,6,7,8,5,1928,736,0,1,"a.sham","3","no_press",0,"NGW","noGo",1,148,"2",17,"win","Win","win","no_press",1,"no_press"
"149","AAAA0432",5,6,7,8,5,1418,776,0,0,"a.sham","3","no_press",0,"NGL","noGo",1,149,"2",16,"neutral","Avoid",NA,"no_press",1,"no_press"
"150","AAAA0432",8,6,7,8,5,2031,824,0,0,"a.sham","3","no_press",0,"NGW","noGo",1,150,"2",18,"neutral","Win",NA,"no_press",0,NA
"151","AAAA0432",5,6,7,8,5,1564,921,0,0,"a.sham","3","no_press",0,"NGL","noGo",1,151,"2",17,"neutral","Avoid",NA,"no_press",1,"no_press"
"152","AAAA0432",6,6,7,8,5,2410,635,425,0,"a.sham","3","press",1,"GW","Go",1,152,"2",18,"neutral","Win",NA,"press",0,NA
"153","AAAA0432",7,6,7,8,5,1433,653,520,0,"a.sham","3","press",1,"GAL","Go",1,153,"2",20,"neutral","Avoid",NA,"press",1,"press"
"154","AAAA0432",5,6,7,8,5,1462,879,0,0,"a.sham","3","no_press",0,"NGL","noGo",1,154,"2",18,"neutral","Avoid",NA,"no_press",1,"no_press"
"155","AAAA0432",5,6,7,8,5,1747,670,0,-1,"a.sham","3","no_press",0,"NGL","noGo",1,155,"2",19,"lose","Avoid","lose","no_press",0,NA
"156","AAAA0432",5,6,7,8,5,2525,715,0,0,"a.sham","3","no_press",0,"NGL","noGo",1,156,"2",20,"neutral","Avoid",NA,"no_press",1,"no_press"
"157","AAAA0432",6,6,7,8,5,1254,841,460,1,"a.sham","3","press",1,"GW","Go",1,157,"2",19,"win","Win","win","press",1,"press"
"158","AAAA0432",8,6,7,8,5,1801,870,0,1,"a.sham","3","no_press",0,"NGW","noGo",1,158,"2",19,"win","Win","win","no_press",1,"no_press"
"159","AAAA0432",6,6,7,8,5,1935,888,520,0,"a.sham","3","press",1,"GW","Go",1,159,"2",20,"neutral","Win",NA,"press",0,NA
"160","AAAA0432",8,6,7,8,5,2579,580,0,1,"a.sham","3","no_press",0,"NGW","noGo",1,160,"2",20,"win","Win","win","no_press",1,"no_press"
"161","AAAA0432",11,10,11,12,9,2023,684,495,0,"a.sham","3","press",1,"GAL","Go",1,161,"3",1,"neutral","Avoid",NA,"press",1,"press"
"162","AAAA0432",10,10,11,12,9,1671,732,632,1,"a.sham","3","press",1,"GW","Go",1,162,"3",1,"win","Win","win","press",1,"press"
"163","AAAA0432",12,10,11,12,9,1000,762,0,1,"a.sham","3","no_press",0,"NGW","noGo",1,163,"3",1,"win","Win","win","no_press",1,"no_press"
"164","AAAA0432",10,10,11,12,9,1821,876,1192,1,"a.sham","3","press",1,"GW","Go",1,164,"3",2,"win","Win","win","press",1,"press"
"165","AAAA0432",10,10,11,12,9,2135,571,604,0,"a.sham","3","press",1,"GW","Go",1,165,"3",3,"neutral","Win",NA,"press",0,NA
"166","AAAA0432",11,10,11,12,9,2816,666,720,0,"a.sham","3","press",1,"GAL","Go",1,166,"3",2,"neutral","Avoid",NA,"press",1,"press"
"167","AAAA0432",11,10,11,12,9,1826,645,592,-1,"a.sham","3","press",1,"GAL","Go",1,167,"3",3,"lose","Avoid","lose","press",0,NA
"168","AAAA0432",10,10,11,12,9,2411,519,614,1,"a.sham","3","press",1,"GW","Go",1,168,"3",4,"win","Win","win","press",1,"press"
"169","AAAA0432",10,10,11,12,9,1741,905,656,1,"a.sham","3","press",1,"GW","Go",1,169,"3",5,"win","Win","win","press",1,"press"
"170","AAAA0432",11,10,11,12,9,1735,626,540,-1,"a.sham","3","press",1,"GAL","Go",1,170,"3",4,"lose","Avoid","lose","no_press",0,NA
"171","AAAA0432",11,10,11,12,9,1540,969,0,-1,"a.sham","3","no_press",0,"GAL","Go",0,171,"3",5,"lose","Avoid","lose","press",1,"press"
"172","AAAA0432",9,10,11,12,9,2722,824,0,-1,"a.sham","3","no_press",0,"NGL","noGo",1,172,"3",1,"lose","Avoid","lose","no_press",0,NA
"173","AAAA0432",11,10,11,12,9,1485,973,1107,0,"a.sham","3","press",1,"GAL","Go",1,173,"3",6,"neutral","Avoid",NA,"press",1,"press"
"174","AAAA0432",10,10,11,12,9,2082,743,617,1,"a.sham","3","press",1,"GW","Go",1,174,"3",6,"win","Win","win","press",1,"press"
"175","AAAA0432",12,10,11,12,9,1800,690,0,1,"a.sham","3","no_press",0,"NGW","noGo",1,175,"3",2,"win","Win","win","no_press",1,"no_press"
"176","AAAA0432",11,10,11,12,9,2129,996,754,0,"a.sham","3","press",1,"GAL","Go",1,176,"3",7,"neutral","Avoid",NA,"press",1,"press"
"177","AAAA0432",10,10,11,12,9,1732,575,677,1,"a.sham","3","press",1,"GW","Go",1,177,"3",7,"win","Win","win","press",1,"press"
"178","AAAA0432",12,10,11,12,9,1742,764,0,1,"a.sham","3","no_press",0,"NGW","noGo",1,178,"3",3,"win","Win","win","no_press",1,"no_press"
"179","AAAA0432",12,10,11,12,9,2330,750,0,1,"a.sham","3","no_press",0,"NGW","noGo",1,179,"3",4,"win","Win","win","no_press",1,"no_press"
"180","AAAA0432",10,10,11,12,9,2687,649,597,1,"a.sham","3","press",1,"GW","Go",1,180,"3",8,"win","Win","win","press",1,"press"
"181","AAAA0432",10,10,11,12,9,2116,988,524,1,"a.sham","3","press",1,"GW","Go",1,181,"3",9,"win","Win","win","press",1,"press"
"182","AAAA0432",9,10,11,12,9,2810,938,0,0,"a.sham","3","no_press",0,"NGL","noGo",1,182,"3",2,"neutral","Avoid",NA,"no_press",1,"no_press"
"183","AAAA0432",11,10,11,12,9,1494,694,650,0,"a.sham","3","press",1,"GAL","Go",1,183,"3",8,"neutral","Avoid",NA,"press",1,"press"
"184","AAAA0432",12,10,11,12,9,2813,542,0,1,"a.sham","3","no_press",0,"NGW","noGo",1,184,"3",5,"win","Win","win","no_press",1,"no_press"
"185","AAAA0432",9,10,11,12,9,3042,635,0,0,"a.sham","3","no_press",0,"NGL","noGo",1,185,"3",3,"neutral","Avoid",NA,"no_press",1,"no_press"
"186","AAAA0432",11,10,11,12,9,1000,904,513,0,"a.sham","3","press",1,"GAL","Go",1,186,"3",9,"neutral","Avoid",NA,"press",1,"press"
"187","AAAA0432",10,10,11,12,9,1904,884,562,0,"a.sham","3","press",1,"GW","Go",1,187,"3",10,"neutral","Win",NA,"press",0,NA
"188","AAAA0432",9,10,11,12,9,1996,561,0,0,"a.sham","3","no_press",0,"NGL","noGo",1,188,"3",4,"neutral","Avoid",NA,"no_press",1,"no_press"
"189","AAAA0432",12,10,11,12,9,2256,533,0,0,"a.sham","3","no_press",0,"NGW","noGo",1,189,"3",6,"neutral","Win",NA,"no_press",0,NA
"190","AAAA0432",9,10,11,12,9,2475,663,0,0,"a.sham","3","no_press",0,"NGL","noGo",1,190,"3",5,"neutral","Avoid",NA,"no_press",1,"no_press"
"191","AAAA0432",9,10,11,12,9,1804,625,0,0,"a.sham","3","no_press",0,"NGL","noGo",1,191,"3",6,"neutral","Avoid",NA,"no_press",1,"no_press"
"192","AAAA0432",10,10,11,12,9,1773,510,657,0,"a.sham","3","press",1,"GW","Go",1,192,"3",11,"neutral","Win",NA,"press",0,NA
"193","AAAA0432",11,10,11,12,9,2084,837,575,0,"a.sham","3","press",1,"GAL","Go",1,193,"3",10,"neutral","Avoid",NA,"press",1,"press"
"194","AAAA0432",12,10,11,12,9,1948,842,0,0,"a.sham","3","no_press",0,"NGW","noGo",1,194,"3",7,"neutral","Win",NA,"no_press",0,NA
"195","AAAA0432",10,10,11,12,9,2044,790,537,1,"a.sham","3","press",1,"GW","Go",1,195,"3",12,"win","Win","win","press",1,"press"
"196","AAAA0432",9,10,11,12,9,1000,858,0,0,"a.sham","3","no_press",0,"NGL","noGo",1,196,"3",7,"neutral","Avoid",NA,"no_press",1,"no_press"
"197","AAAA0432",9,10,11,12,9,1693,633,0,0,"a.sham","3","no_press",0,"NGL","noGo",1,197,"3",8,"neutral","Avoid",NA,"no_press",1,"no_press"
"198","AAAA0432",11,10,11,12,9,2209,859,578,0,"a.sham","3","press",1,"GAL","Go",1,198,"3",11,"neutral","Avoid",NA,"press",1,"press"
"199","AAAA0432",9,10,11,12,9,1892,672,0,0,"a.sham","3","no_press",0,"NGL","noGo",1,199,"3",9,"neutral","Avoid",NA,"no_press",1,"no_press"
"200","AAAA0432",10,10,11,12,9,1783,665,579,1,"a.sham","3","press",1,"GW","Go",1,200,"3",13,"win","Win","win","press",1,"press"
"201","AAAA0432",9,10,11,12,9,1402,876,0,0,"a.sham","3","no_press",0,"NGL","noGo",1,201,"3",10,"neutral","Avoid",NA,"no_press",1,"no_press"
"202","AAAA0432",10,10,11,12,9,1965,809,599,0,"a.sham","3","press",1,"GW","Go",1,202,"3",14,"neutral","Win",NA,"press",0,NA
"203","AAAA0432",11,10,11,12,9,1643,974,508,0,"a.sham","3","press",1,"GAL","Go",1,203,"3",12,"neutral","Avoid",NA,"press",1,"press"
"204","AAAA0432",9,10,11,12,9,1962,733,0,0,"a.sham","3","no_press",0,"NGL","noGo",1,204,"3",11,"neutral","Avoid",NA,"no_press",1,"no_press"
"205","AAAA0432",12,10,11,12,9,1772,955,0,1,"a.sham","3","no_press",0,"NGW","noGo",1,205,"3",8,"win","Win","win","no_press",1,"no_press"
"206","AAAA0432",12,10,11,12,9,2241,595,0,1,"a.sham","3","no_press",0,"NGW","noGo",1,206,"3",9,"win","Win","win","no_press",1,"no_press"
"207","AAAA0432",9,10,11,12,9,1722,945,0,-1,"a.sham","3","no_press",0,"NGL","noGo",1,207,"3",12,"lose","Avoid","lose","no_press",0,NA
"208","AAAA0432",11,10,11,12,9,2200,999,555,0,"a.sham","3","press",1,"GAL","Go",1,208,"3",13,"neutral","Avoid",NA,"press",1,"press"
"209","AAAA0432",11,10,11,12,9,2075,617,492,-1,"a.sham","3","press",1,"GAL","Go",1,209,"3",14,"lose","Avoid","lose","press",0,NA
"210","AAAA0432",11,10,11,12,9,2550,835,547,0,"a.sham","3","press",1,"GAL","Go",1,210,"3",15,"neutral","Avoid",NA,"press",1,"press"
"211","AAAA0432",9,10,11,12,9,1446,704,0,0,"a.sham","3","no_press",0,"NGL","noGo",1,211,"3",13,"neutral","Avoid",NA,"no_press",1,"no_press"
"212","AAAA0432",10,10,11,12,9,1160,788,532,1,"a.sham","3","press",1,"GW","Go",1,212,"3",15,"win","Win","win","press",1,"press"
"213","AAAA0432",10,10,11,12,9,1652,951,526,1,"a.sham","3","press",1,"GW","Go",1,213,"3",16,"win","Win","win","press",1,"press"
"214","AAAA0432",10,10,11,12,9,2434,533,428,1,"a.sham","3","press",1,"GW","Go",1,214,"3",17,"win","Win","win","press",1,"press"
"215","AAAA0432",12,10,11,12,9,1513,767,0,1,"a.sham","3","no_press",0,"NGW","noGo",1,215,"3",10,"win","Win","win","no_press",1,"no_press"
"216","AAAA0432",10,10,11,12,9,1773,576,539,1,"a.sham","3","press",1,"GW","Go",1,216,"3",18,"win","Win","win","press",1,"press"
"217","AAAA0432",12,10,11,12,9,1780,660,0,1,"a.sham","3","no_press",0,"NGW","noGo",1,217,"3",11,"win","Win","win","no_press",1,"no_press"
"218","AAAA0432",11,10,11,12,9,1835,720,598,-1,"a.sham","3","press",1,"GAL","Go",1,218,"3",16,"lose","Avoid","lose","press",0,NA
"219","AAAA0432",9,10,11,12,9,2596,932,0,0,"a.sham","3","no_press",0,"NGL","noGo",1,219,"3",14,"neutral","Avoid",NA,"no_press",1,"no_press"
"220","AAAA0432",11,10,11,12,9,1448,719,629,0,"a.sham","3","press",1,"GAL","Go",1,220,"3",17,"neutral","Avoid",NA,"press",1,"press"
"221","AAAA0432",12,10,11,12,9,1873,1000,0,1,"a.sham","3","no_press",0,"NGW","noGo",1,221,"3",12,"win","Win","win","no_press",1,"no_press"
"222","AAAA0432",10,10,11,12,9,1803,940,365,1,"a.sham","3","press",1,"GW","Go",1,222,"3",19,"win","Win","win","press",1,"press"
"223","AAAA0432",12,10,11,12,9,1681,500,0,1,"a.sham","3","no_press",0,"NGW","noGo",1,223,"3",13,"win","Win","win","no_press",1,"no_press"
"224","AAAA0432",11,10,11,12,9,1827,616,535,0,"a.sham","3","press",1,"GAL","Go",1,224,"3",18,"neutral","Avoid",NA,"press",1,"press"
"225","AAAA0432",12,10,11,12,9,3823,885,0,1,"a.sham","3","no_press",0,"NGW","noGo",1,225,"3",14,"win","Win","win","no_press",1,"no_press"
"226","AAAA0432",9,10,11,12,9,1486,670,0,0,"a.sham","3","no_press",0,"NGL","noGo",1,226,"3",15,"neutral","Avoid",NA,"no_press",1,"no_press"
"227","AAAA0432",11,10,11,12,9,2508,897,529,0,"a.sham","3","press",1,"GAL","Go",1,227,"3",19,"neutral","Avoid",NA,"press",1,"press"
"228","AAAA0432",9,10,11,12,9,1559,515,0,0,"a.sham","3","no_press",0,"NGL","noGo",1,228,"3",16,"neutral","Avoid",NA,"no_press",1,"no_press"
"229","AAAA0432",9,10,11,12,9,2297,707,0,-1,"a.sham","3","no_press",0,"NGL","noGo",1,229,"3",17,"lose","Avoid","lose","no_press",0,NA
"230","AAAA0432",12,10,11,12,9,1649,924,0,1,"a.sham","3","no_press",0,"NGW","noGo",1,230,"3",15,"win","Win","win","no_press",1,"no_press"
"231","AAAA0432",9,10,11,12,9,2671,810,0,0,"a.sham","3","no_press",0,"NGL","noGo",1,231,"3",18,"neutral","Avoid",NA,"no_press",1,"no_press"
"232","AAAA0432",9,10,11,12,9,2393,526,0,0,"a.sham","3","no_press",0,"NGL","noGo",1,232,"3",19,"neutral","Avoid",NA,"no_press",1,"no_press"
"233","AAAA0432",12,10,11,12,9,1367,551,0,0,"a.sham","3","no_press",0,"NGW","noGo",1,233,"3",16,"neutral","Win",NA,"no_press",0,NA
"234","AAAA0432",10,10,11,12,9,1510,548,555,1,"a.sham","3","press",1,"GW","Go",1,234,"3",20,"win","Win","win","press",1,"press"
"235","AAAA0432",9,10,11,12,9,3211,534,0,0,"a.sham","3","no_press",0,"NGL","noGo",1,235,"3",20,"neutral","Avoid",NA,"press",1,"press"
"236","AAAA0432",11,10,11,12,9,1418,639,496,0,"a.sham","3","press",1,"GAL","Go",1,236,"3",20,"neutral","Avoid",NA,"press",1,"press"
"237","AAAA0432",12,10,11,12,9,1748,580,0,0,"a.sham","3","no_press",0,"NGW","noGo",1,237,"3",17,"neutral","Win",NA,"no_press",0,NA
"238","AAAA0432",12,10,11,12,9,2208,998,0,1,"a.sham","3","no_press",0,"NGW","noGo",1,238,"3",18,"win","Win","win","no_press",1,"no_press"
"239","AAAA0432",12,10,11,12,9,1753,940,0,1,"a.sham","3","no_press",0,"NGW","noGo",1,239,"3",19,"win","Win","win","no_press",1,"no_press"
"240","AAAA0432",12,10,11,12,9,1439,509,0,1,"a.sham","3","no_press",0,"NGW","noGo",1,240,"3",20,"win","Win","win","press",1,"press"
"241","AAAA0432",14,16,15,14,13,1946,711,1091,0,"a.sham","3","press",1,"NGW","noGo",0,241,"4",1,"neutral","Win",NA,"no_press",1,"no_press"
"242","AAAA0432",15,16,15,14,13,1989,513,739,0,"a.sham","3","press",1,"GAL","Go",1,242,"4",1,"neutral","Avoid",NA,"press",1,"press"
"243","AAAA0432",15,16,15,14,13,1510,846,1010,-1,"a.sham","3","press",1,"GAL","Go",1,243,"4",2,"lose","Avoid","lose","press",0,NA
"244","AAAA0432",13,16,15,14,13,1596,521,984,-1,"a.sham","3","press",1,"NGL","noGo",0,244,"4",1,"lose","Avoid","lose","press",1,"press"
"245","AAAA0432",15,16,15,14,13,1447,801,930,0,"a.sham","3","press",1,"GAL","Go",1,245,"4",3,"neutral","Avoid",NA,"press",1,"press"
"246","AAAA0432",13,16,15,14,13,1155,586,1169,-1,"a.sham","3","press",1,"NGL","noGo",0,246,"4",2,"lose","Avoid","lose","no_press",1,"no_press"
"247","AAAA0432",16,16,15,14,13,1995,896,966,1,"a.sham","3","press",1,"GW","Go",1,247,"4",1,"win","Win","win","press",1,"press"
"248","AAAA0432",16,16,15,14,13,1755,963,558,1,"a.sham","3","press",1,"GW","Go",1,248,"4",2,"win","Win","win","press",1,"press"
"249","AAAA0432",13,16,15,14,13,1000,602,0,0,"a.sham","3","no_press",0,"NGL","noGo",1,249,"4",3,"neutral","Avoid",NA,"no_press",1,"no_press"
"250","AAAA0432",16,16,15,14,13,2512,959,580,1,"a.sham","3","press",1,"GW","Go",1,250,"4",3,"win","Win","win","press",1,"press"
"251","AAAA0432",15,16,15,14,13,1482,543,578,0,"a.sham","3","press",1,"GAL","Go",1,251,"4",4,"neutral","Avoid",NA,"press",1,"press"
"252","AAAA0432",14,16,15,14,13,2973,666,0,1,"a.sham","3","no_press",0,"NGW","noGo",1,252,"4",2,"win","Win","win","no_press",1,"no_press"
"253","AAAA0432",16,16,15,14,13,2086,998,570,1,"a.sham","3","press",1,"GW","Go",1,253,"4",4,"win","Win","win","press",1,"press"
"254","AAAA0432",13,16,15,14,13,2969,693,0,0,"a.sham","3","no_press",0,"NGL","noGo",1,254,"4",4,"neutral","Avoid",NA,"no_press",1,"no_press"
"255","AAAA0432",13,16,15,14,13,1430,793,0,-1,"a.sham","3","no_press",0,"NGL","noGo",1,255,"4",5,"lose","Avoid","lose","no_press",0,NA
"256","AAAA0432",13,16,15,14,13,1765,644,0,0,"a.sham","3","no_press",0,"NGL","noGo",1,256,"4",6,"neutral","Avoid",NA,"no_press",1,"no_press"
"257","AAAA0432",14,16,15,14,13,1676,769,0,1,"a.sham","3","no_press",0,"NGW","noGo",1,257,"4",3,"win","Win","win","no_press",1,"no_press"
"258","AAAA0432",13,16,15,14,13,2085,946,0,0,"a.sham","3","no_press",0,"NGL","noGo",1,258,"4",7,"neutral","Avoid",NA,"no_press",1,"no_press"
"259","AAAA0432",13,16,15,14,13,2211,983,0,0,"a.sham","3","no_press",0,"NGL","noGo",1,259,"4",8,"neutral","Avoid",NA,"no_press",1,"no_press"
"260","AAAA0432",16,16,15,14,13,1925,934,594,1,"a.sham","3","press",1,"GW","Go",1,260,"4",5,"win","Win","win","press",1,"press"
"261","AAAA0432",15,16,15,14,13,2000,733,462,0,"a.sham","3","press",1,"GAL","Go",1,261,"4",5,"neutral","Avoid",NA,"press",1,"press"
"262","AAAA0432",16,16,15,14,13,2225,847,566,1,"a.sham","3","press",1,"GW","Go",1,262,"4",6,"win","Win","win","press",1,"press"
"263","AAAA0432",15,16,15,14,13,2031,624,585,-1,"a.sham","3","press",1,"GAL","Go",1,263,"4",6,"lose","Avoid","lose","press",0,NA
"264","AAAA0432",14,16,15,14,13,2044,572,0,1,"a.sham","3","no_press",0,"NGW","noGo",1,264,"4",4,"win","Win","win","no_press",1,"no_press"
"265","AAAA0432",14,16,15,14,13,1368,623,0,0,"a.sham","3","no_press",0,"NGW","noGo",1,265,"4",5,"neutral","Win",NA,"no_press",0,NA
"266","AAAA0432",13,16,15,14,13,1652,695,0,0,"a.sham","3","no_press",0,"NGL","noGo",1,266,"4",9,"neutral","Avoid",NA,"no_press",1,"no_press"
"267","AAAA0432",15,16,15,14,13,2096,658,455,0,"a.sham","3","press",1,"GAL","Go",1,267,"4",7,"neutral","Avoid",NA,"press",1,"press"
"268","AAAA0432",16,16,15,14,13,3045,628,443,0,"a.sham","3","press",1,"GW","Go",1,268,"4",7,"neutral","Win",NA,"press",0,NA
"269","AAAA0432",13,16,15,14,13,1915,660,0,0,"a.sham","3","no_press",0,"NGL","noGo",1,269,"4",10,"neutral","Avoid",NA,"no_press",1,"no_press"
"270","AAAA0432",13,16,15,14,13,2737,569,0,-1,"a.sham","3","no_press",0,"NGL","noGo",1,270,"4",11,"lose","Avoid","lose","no_press",0,NA
"271","AAAA0432",14,16,15,14,13,1813,891,0,1,"a.sham","3","no_press",0,"NGW","noGo",1,271,"4",6,"win","Win","win","no_press",1,"no_press"
"272","AAAA0432",14,16,15,14,13,1771,699,0,1,"a.sham","3","no_press",0,"NGW","noGo",1,272,"4",7,"win","Win","win","no_press",1,"no_press"
"273","AAAA0432",16,16,15,14,13,1699,846,562,1,"a.sham","3","press",1,"GW","Go",1,273,"4",8,"win","Win","win","press",1,"press"
"274","AAAA0432",16,16,15,14,13,2923,774,559,1,"a.sham","3","press",1,"GW","Go",1,274,"4",9,"win","Win","win","press",1,"press"
"275","AAAA0432",14,16,15,14,13,1944,867,0,0,"a.sham","3","no_press",0,"NGW","noGo",1,275,"4",8,"neutral","Win",NA,"no_press",0,NA
"276","AAAA0432",15,16,15,14,13,2606,534,536,0,"a.sham","3","press",1,"GAL","Go",1,276,"4",8,"neutral","Avoid",NA,"press",1,"press"
"277","AAAA0432",13,16,15,14,13,1000,509,0,0,"a.sham","3","no_press",0,"NGL","noGo",1,277,"4",12,"neutral","Avoid",NA,"no_press",1,"no_press"
"278","AAAA0432",13,16,15,14,13,1668,602,0,-1,"a.sham","3","no_press",0,"NGL","noGo",1,278,"4",13,"lose","Avoid","lose","no_press",0,NA
"279","AAAA0432",15,16,15,14,13,1202,957,565,0,"a.sham","3","press",1,"GAL","Go",1,279,"4",9,"neutral","Avoid",NA,"press",1,"press"
"280","AAAA0432",13,16,15,14,13,1550,847,0,0,"a.sham","3","no_press",0,"NGL","noGo",1,280,"4",14,"neutral","Avoid",NA,"no_press",1,"no_press"
"281","AAAA0432",16,16,15,14,13,2369,506,464,1,"a.sham","3","press",1,"GW","Go",1,281,"4",10,"win","Win","win","press",1,"press"
"282","AAAA0432",16,16,15,14,13,1305,729,539,1,"a.sham","3","press",1,"GW","Go",1,282,"4",11,"win","Win","win","press",1,"press"
"283","AAAA0432",14,16,15,14,13,1577,676,0,0,"a.sham","3","no_press",0,"NGW","noGo",1,283,"4",9,"neutral","Win",NA,"no_press",0,NA
"284","AAAA0432",14,16,15,14,13,3438,986,0,1,"a.sham","3","no_press",0,"NGW","noGo",1,284,"4",10,"win","Win","win","no_press",1,"no_press"
"285","AAAA0432",15,16,15,14,13,1712,658,541,0,"a.sham","3","press",1,"GAL","Go",1,285,"4",10,"neutral","Avoid",NA,"press",1,"press"
"286","AAAA0432",16,16,15,14,13,1563,675,527,0,"a.sham","3","press",1,"GW","Go",1,286,"4",12,"neutral","Win",NA,"press",0,NA
"287","AAAA0432",16,16,15,14,13,1498,729,475,1,"a.sham","3","press",1,"GW","Go",1,287,"4",13,"win","Win","win","press",1,"press"
"288","AAAA0432",13,16,15,14,13,2394,758,0,0,"a.sham","3","no_press",0,"NGL","noGo",1,288,"4",15,"neutral","Avoid",NA,"no_press",1,"no_press"
"289","AAAA0432",16,16,15,14,13,2559,821,563,1,"a.sham","3","press",1,"GW","Go",1,289,"4",14,"win","Win","win","press",1,"press"
"290","AAAA0432",14,16,15,14,13,2343,689,0,1,"a.sham","3","no_press",0,"NGW","noGo",1,290,"4",11,"win","Win","win","no_press",1,"no_press"
"291","AAAA0432",13,16,15,14,13,1468,760,0,0,"a.sham","3","no_press",0,"NGL","noGo",1,291,"4",16,"neutral","Avoid",NA,"no_press",1,"no_press"
"292","AAAA0432",14,16,15,14,13,2093,825,0,1,"a.sham","3","no_press",0,"NGW","noGo",1,292,"4",12,"win","Win","win","no_press",1,"no_press"
"293","AAAA0432",13,16,15,14,13,1918,862,0,0,"a.sham","3","no_press",0,"NGL","noGo",1,293,"4",17,"neutral","Avoid",NA,"no_press",1,"no_press"
"294","AAAA0432",15,16,15,14,13,2434,808,513,0,"a.sham","3","press",1,"GAL","Go",1,294,"4",11,"neutral","Avoid",NA,"press",1,"press"
"295","AAAA0432",13,16,15,14,13,1809,828,0,0,"a.sham","3","no_press",0,"NGL","noGo",1,295,"4",18,"neutral","Avoid",NA,"no_press",1,"no_press"
"296","AAAA0432",15,16,15,14,13,2328,514,514,0,"a.sham","3","press",1,"GAL","Go",1,296,"4",12,"neutral","Avoid",NA,"press",1,"press"
"297","AAAA0432",16,16,15,14,13,1477,513,392,1,"a.sham","3","press",1,"GW","Go",1,297,"4",15,"win","Win","win","press",1,"press"
"298","AAAA0432",15,16,15,14,13,2493,777,506,-1,"a.sham","3","press",1,"GAL","Go",1,298,"4",13,"lose","Avoid","lose","press",0,NA
"299","AAAA0432",15,16,15,14,13,2687,545,458,0,"a.sham","3","press",1,"GAL","Go",1,299,"4",14,"neutral","Avoid",NA,"press",1,"press"
"300","AAAA0432",15,16,15,14,13,2336,940,463,0,"a.sham","3","press",1,"GAL","Go",1,300,"4",15,"neutral","Avoid",NA,"press",1,"press"
"301","AAAA0432",14,16,15,14,13,1645,839,0,1,"a.sham","3","no_press",0,"NGW","noGo",1,301,"4",13,"win","Win","win","no_press",1,"no_press"
"302","AAAA0432",16,16,15,14,13,2305,561,451,0,"a.sham","3","press",1,"GW","Go",1,302,"4",16,"neutral","Win",NA,"press",0,NA
"303","AAAA0432",14,16,15,14,13,3088,596,0,1,"a.sham","3","no_press",0,"NGW","noGo",1,303,"4",14,"win","Win","win","no_press",1,"no_press"
"304","AAAA0432",13,16,15,14,13,2439,734,0,0,"a.sham","3","no_press",0,"NGL","noGo",1,304,"4",19,"neutral","Avoid",NA,"no_press",1,"no_press"
"305","AAAA0432",14,16,15,14,13,1704,612,0,1,"a.sham","3","no_press",0,"NGW","noGo",1,305,"4",15,"win","Win","win","no_press",1,"no_press"
"306","AAAA0432",15,16,15,14,13,2253,773,532,-1,"a.sham","3","press",1,"GAL","Go",1,306,"4",16,"lose","Avoid","lose","press",0,NA
"307","AAAA0432",15,16,15,14,13,2518,793,550,0,"a.sham","3","press",1,"GAL","Go",1,307,"4",17,"neutral","Avoid",NA,"press",1,"press"
"308","AAAA0432",16,16,15,14,13,1525,641,486,0,"a.sham","3","press",1,"GW","Go",1,308,"4",17,"neutral","Win",NA,"press",0,NA
"309","AAAA0432",14,16,15,14,13,2185,774,0,1,"a.sham","3","no_press",0,"NGW","noGo",1,309,"4",16,"win","Win","win","no_press",1,"no_press"
"310","AAAA0432",16,16,15,14,13,2071,960,505,1,"a.sham","3","press",1,"GW","Go",1,310,"4",18,"win","Win","win","press",1,"press"
"311","AAAA0432",14,16,15,14,13,2674,584,0,1,"a.sham","3","no_press",0,"NGW","noGo",1,311,"4",17,"win","Win","win","no_press",1,"no_press"
"312","AAAA0432",15,16,15,14,13,2164,658,546,0,"a.sham","3","press",1,"GAL","Go",1,312,"4",18,"neutral","Avoid",NA,"press",1,"press"
"313","AAAA0432",16,16,15,14,13,1629,671,516,1,"a.sham","3","press",1,"GW","Go",1,313,"4",19,"win","Win","win","press",1,"press"
"314","AAAA0432",15,16,15,14,13,2314,611,608,0,"a.sham","3","press",1,"GAL","Go",1,314,"4",19,"neutral","Avoid",NA,"press",1,"press"
"315","AAAA0432",15,16,15,14,13,2144,638,510,0,"a.sham","3","press",1,"GAL","Go",1,315,"4",20,"neutral","Avoid",NA,NA,1,NA
"316","AAAA0432",14,16,15,14,13,2533,935,0,1,"a.sham","3","no_press",0,"NGW","noGo",1,316,"4",18,"win","Win","win","no_press",1,"no_press"
"317","AAAA0432",16,16,15,14,13,1923,521,546,1,"a.sham","3","press",1,"GW","Go",1,317,"4",20,"win","Win","win",NA,1,NA
"318","AAAA0432",14,16,15,14,13,1816,699,0,0,"a.sham","3","no_press",0,"NGW","noGo",1,318,"4",19,"neutral","Win",NA,"no_press",0,NA
"319","AAAA0432",14,16,15,14,13,1657,766,0,1,"a.sham","3","no_press",0,"NGW","noGo",1,319,"4",20,"win","Win","win",NA,1,NA
"320","AAAA0432",13,16,15,14,13,2284,574,0,0,"a.sham","3","no_press",0,"NGL","noGo",1,320,"4",20,"neutral","Avoid",NA,NA,1,NA
"321","BNVN0020",4,4,1,2,3,3412,990,0,0,"a.sham","1","no_press",0,"GW","Go",0,1,"1",1,"neutral","Win",NA,"no_press",1,"no_press"
"322","BNVN0020",1,4,1,2,3,1824,777,549,0,"a.sham","1","press",1,"GAL","Go",1,2,"1",1,"neutral","Avoid",NA,"press",1,"press"
"323","BNVN0020",2,4,1,2,3,1942,696,626,0,"a.sham","1","press",1,"NGW","noGo",0,3,"1",1,"neutral","Win",NA,"press",1,"press"
"324","BNVN0020",4,4,1,2,3,2253,891,0,0,"a.sham","1","no_press",0,"GW","Go",0,4,"1",2,"neutral","Win",NA,"press",1,"press"
"325","BNVN0020",1,4,1,2,3,2503,673,615,0,"a.sham","1","press",1,"GAL","Go",1,5,"1",2,"neutral","Avoid",NA,"press",1,"press"
"326","BNVN0020",1,4,1,2,3,2272,697,559,0,"a.sham","1","press",1,"GAL","Go",1,6,"1",3,"neutral","Avoid",NA,"press",1,"press"
"327","BNVN0020",1,4,1,2,3,1795,991,512,0,"a.sham","1","press",1,"GAL","Go",1,7,"1",4,"neutral","Avoid",NA,"press",1,"press"
"328","BNVN0020",1,4,1,2,3,1000,545,601,0,"a.sham","1","press",1,"GAL","Go",1,8,"1",5,"neutral","Avoid",NA,"no_press",1,"no_press"
"329","BNVN0020",1,4,1,2,3,2404,683,0,0,"a.sham","1","no_press",0,"GAL","Go",0,9,"1",6,"neutral","Avoid",NA,"press",0,NA
"330","BNVN0020",3,4,1,2,3,1326,561,751,-1,"a.sham","1","press",1,"NGL","noGo",0,10,"1",1,"lose","Avoid","lose","press",1,"press"
"331","BNVN0020",1,4,1,2,3,2538,934,707,0,"a.sham","1","press",1,"GAL","Go",1,11,"1",7,"neutral","Avoid",NA,"press",1,"press"
"332","BNVN0020",3,4,1,2,3,1690,763,469,-1,"a.sham","1","press",1,"NGL","noGo",0,12,"1",2,"lose","Avoid","lose","press",1,"press"
"333","BNVN0020",3,4,1,2,3,2930,914,681,-1,"a.sham","1","press",1,"NGL","noGo",0,13,"1",3,"lose","Avoid","lose","no_press",1,"no_press"
"334","BNVN0020",1,4,1,2,3,2184,602,1103,0,"a.sham","1","press",1,"GAL","Go",1,14,"1",8,"neutral","Avoid",NA,"no_press",1,"no_press"
"335","BNVN0020",2,4,1,2,3,1780,551,1321,0,"a.sham","1","press",1,"NGW","noGo",0,15,"1",2,"neutral","Win",NA,"no_press",1,"no_press"
"336","BNVN0020",3,4,1,2,3,2547,691,0,0,"a.sham","1","no_press",0,"NGL","noGo",1,16,"1",4,"neutral","Avoid",NA,"no_press",1,"no_press"
"337","BNVN0020",3,4,1,2,3,2149,778,0,0,"a.sham","1","no_press",0,"NGL","noGo",1,17,"1",5,"neutral","Avoid",NA,"no_press",1,"no_press"
"338","BNVN0020",1,4,1,2,3,1338,918,0,0,"a.sham","1","no_press",0,"GAL","Go",0,18,"1",9,"neutral","Avoid",NA,"press",0,NA
"339","BNVN0020",4,4,1,2,3,2224,608,680,1,"a.sham","1","press",1,"GW","Go",1,19,"1",3,"win","Win","win","no_press",1,"no_press"
"340","BNVN0020",1,4,1,2,3,1795,875,681,0,"a.sham","1","press",1,"GAL","Go",1,20,"1",10,"neutral","Avoid",NA,"press",1,"press"
"341","BNVN0020",2,4,1,2,3,2785,798,0,1,"a.sham","1","no_press",0,"NGW","noGo",1,21,"1",3,"win","Win","win","no_press",1,"no_press"
"342","BNVN0020",2,4,1,2,3,2615,600,0,1,"a.sham","1","no_press",0,"NGW","noGo",1,22,"1",4,"win","Win","win","no_press",1,"no_press"
"343","BNVN0020",4,4,1,2,3,1249,755,0,0,"a.sham","1","no_press",0,"GW","Go",0,23,"1",4,"neutral","Win",NA,"no_press",1,"no_press"
"344","BNVN0020",1,4,1,2,3,1407,672,1220,0,"a.sham","1","press",1,"GAL","Go",1,24,"1",11,"neutral","Avoid",NA,"press",1,"press"
"345","BNVN0020",4,4,1,2,3,1598,752,0,0,"a.sham","1","no_press",0,"GW","Go",0,25,"1",5,"neutral","Win",NA,"no_press",1,"no_press"
"346","BNVN0020",2,4,1,2,3,1709,966,0,1,"a.sham","1","no_press",0,"NGW","noGo",1,26,"1",5,"win","Win","win","no_press",1,"no_press"
"347","BNVN0020",4,4,1,2,3,2066,743,0,0,"a.sham","1","no_press",0,"GW","Go",0,27,"1",6,"neutral","Win",NA,"no_press",1,"no_press"
"348","BNVN0020",1,4,1,2,3,1166,953,1495,0,"a.sham","1","press",1,"GAL","Go",1,28,"1",12,"neutral","Avoid",NA,"press",1,"press"
"349","BNVN0020",3,4,1,2,3,1458,862,0,0,"a.sham","1","no_press",0,"NGL","noGo",1,29,"1",6,"neutral","Avoid",NA,"no_press",1,"no_press"
"350","BNVN0020",2,4,1,2,3,2103,956,0,1,"a.sham","1","no_press",0,"NGW","noGo",1,30,"1",6,"win","Win","win","no_press",1,"no_press"
"351","BNVN0020",2,4,1,2,3,1608,999,0,1,"a.sham","1","no_press",0,"NGW","noGo",1,31,"1",7,"win","Win","win","no_press",1,"no_press"
"352","BNVN0020",4,4,1,2,3,1598,939,0,0,"a.sham","1","no_press",0,"GW","Go",0,32,"1",7,"neutral","Win",NA,"no_press",1,"no_press"
"353","BNVN0020",3,4,1,2,3,1784,641,0,0,"a.sham","1","no_press",0,"NGL","noGo",1,33,"1",7,"neutral","Avoid",NA,"no_press",1,"no_press"
"354","BNVN0020",3,4,1,2,3,1484,895,0,-1,"a.sham","1","no_press",0,"NGL","noGo",1,34,"1",8,"lose","Avoid","lose","press",0,NA
"355","BNVN0020",2,4,1,2,3,1715,641,0,1,"a.sham","1","no_press",0,"NGW","noGo",1,35,"1",8,"win","Win","win","no_press",1,"no_press"
"356","BNVN0020",4,4,1,2,3,2386,868,0,0,"a.sham","1","no_press",0,"GW","Go",0,36,"1",8,"neutral","Win",NA,"press",1,"press"
"357","BNVN0020",4,4,1,2,3,2288,864,844,0,"a.sham","1","press",1,"GW","Go",1,37,"1",9,"neutral","Win",NA,"press",0,NA
"358","BNVN0020",3,4,1,2,3,2663,737,1238,-1,"a.sham","1","press",1,"NGL","noGo",0,38,"1",9,"lose","Avoid","lose","no_press",1,"no_press"
"359","BNVN0020",1,4,1,2,3,2822,656,431,0,"a.sham","1","press",1,"GAL","Go",1,39,"1",13,"neutral","Avoid",NA,"no_press",1,"no_press"
"360","BNVN0020",2,4,1,2,3,1889,818,0,1,"a.sham","1","no_press",0,"NGW","noGo",1,40,"1",9,"win","Win","win","no_press",1,"no_press"
"361","BNVN0020",2,4,1,2,3,1364,791,0,1,"a.sham","1","no_press",0,"NGW","noGo",1,41,"1",10,"win","Win","win","no_press",1,"no_press"
"362","BNVN0020",3,4,1,2,3,2318,546,0,-1,"a.sham","1","no_press",0,"NGL","noGo",1,42,"1",10,"lose","Avoid","lose","press",0,NA
"363","BNVN0020",3,4,1,2,3,1752,758,657,-1,"a.sham","1","press",1,"NGL","noGo",0,43,"1",11,"lose","Avoid","lose","press",1,"press"
"364","BNVN0020",4,4,1,2,3,2664,887,1052,1,"a.sham","1","press",1,"GW","Go",1,44,"1",10,"win","Win","win","press",1,"press"
"365","BNVN0020",2,4,1,2,3,1779,791,0,1,"a.sham","1","no_press",0,"NGW","noGo",1,45,"1",11,"win","Win","win","no_press",1,"no_press"
"366","BNVN0020",1,4,1,2,3,1463,905,0,-1,"a.sham","1","no_press",0,"GAL","Go",0,46,"1",14,"lose","Avoid","lose","no_press",1,"no_press"
"367","BNVN0020",2,4,1,2,3,2664,630,0,1,"a.sham","1","no_press",0,"NGW","noGo",1,47,"1",12,"win","Win","win","no_press",1,"no_press"
"368","BNVN0020",3,4,1,2,3,1842,645,1055,0,"a.sham","1","press",1,"NGL","noGo",0,48,"1",12,"neutral","Avoid",NA,"press",0,NA
"369","BNVN0020",3,4,1,2,3,2349,798,519,-1,"a.sham","1","press",1,"NGL","noGo",0,49,"1",13,"lose","Avoid","lose","no_press",1,"no_press"
"370","BNVN0020",2,4,1,2,3,1246,952,0,0,"a.sham","1","no_press",0,"NGW","noGo",1,50,"1",13,"neutral","Win",NA,"no_press",0,NA
"371","BNVN0020",3,4,1,2,3,2131,692,0,0,"a.sham","1","no_press",0,"NGL","noGo",1,51,"1",14,"neutral","Avoid",NA,"no_press",1,"no_press"
"372","BNVN0020",3,4,1,2,3,2008,861,0,0,"a.sham","1","no_press",0,"NGL","noGo",1,52,"1",15,"neutral","Avoid",NA,"no_press",1,"no_press"
"373","BNVN0020",1,4,1,2,3,1511,531,0,-1,"a.sham","1","no_press",0,"GAL","Go",0,53,"1",15,"lose","Avoid","lose","press",1,"press"
"374","BNVN0020",1,4,1,2,3,2266,783,910,-1,"a.sham","1","press",1,"GAL","Go",1,54,"1",16,"lose","Avoid","lose","no_press",0,NA
"375","BNVN0020",4,4,1,2,3,1938,538,968,1,"a.sham","1","press",1,"GW","Go",1,55,"1",11,"win","Win","win","press",1,"press"
"376","BNVN0020",3,4,1,2,3,1597,602,0,0,"a.sham","1","no_press",0,"NGL","noGo",1,56,"1",16,"neutral","Avoid",NA,"no_press",1,"no_press"
"377","BNVN0020",4,4,1,2,3,1954,549,1356,1,"a.sham","1","press",1,"GW","Go",1,57,"1",12,"win","Win","win","press",1,"press"
"378","BNVN0020",2,4,1,2,3,1575,891,0,1,"a.sham","1","no_press",0,"NGW","noGo",1,58,"1",14,"win","Win","win","no_press",1,"no_press"
"379","BNVN0020",2,4,1,2,3,2650,932,0,1,"a.sham","1","no_press",0,"NGW","noGo",1,59,"1",15,"win","Win","win","no_press",1,"no_press"
"380","BNVN0020",4,4,1,2,3,2132,951,895,0,"a.sham","1","press",1,"GW","Go",1,60,"1",13,"neutral","Win",NA,"press",0,NA
"381","BNVN0020",3,4,1,2,3,1559,632,0,0,"a.sham","1","no_press",0,"NGL","noGo",1,61,"1",17,"neutral","Avoid",NA,"no_press",1,"no_press"
"382","BNVN0020",2,4,1,2,3,2315,865,0,0,"a.sham","1","no_press",0,"NGW","noGo",1,62,"1",16,"neutral","Win",NA,"no_press",0,NA
"383","BNVN0020",1,4,1,2,3,1861,577,0,-1,"a.sham","1","no_press",0,"GAL","Go",0,63,"1",17,"lose","Avoid","lose","press",1,"press"
"384","BNVN0020",2,4,1,2,3,2116,673,0,1,"a.sham","1","no_press",0,"NGW","noGo",1,64,"1",17,"win","Win","win","no_press",1,"no_press"
"385","BNVN0020",1,4,1,2,3,2493,788,468,0,"a.sham","1","press",1,"GAL","Go",1,65,"1",18,"neutral","Avoid",NA,"press",1,"press"
"386","BNVN0020",4,4,1,2,3,2701,870,783,0,"a.sham","1","press",1,"GW","Go",1,66,"1",14,"neutral","Win",NA,"press",0,NA
"387","BNVN0020",3,4,1,2,3,3029,748,0,0,"a.sham","1","no_press",0,"NGL","noGo",1,67,"1",18,"neutral","Avoid",NA,"no_press",1,"no_press"
"388","BNVN0020",4,4,1,2,3,1729,610,724,1,"a.sham","1","press",1,"GW","Go",1,68,"1",15,"win","Win","win","press",1,"press"
"389","BNVN0020",3,4,1,2,3,2029,839,0,0,"a.sham","1","no_press",0,"NGL","noGo",1,69,"1",19,"neutral","Avoid",NA,"no_press",1,"no_press"
"390","BNVN0020",4,4,1,2,3,2262,829,688,0,"a.sham","1","press",1,"GW","Go",1,70,"1",16,"neutral","Win",NA,"press",0,NA
"391","BNVN0020",1,4,1,2,3,1992,526,544,0,"a.sham","1","press",1,"GAL","Go",1,71,"1",19,"neutral","Avoid",NA,"press",1,"press"
"392","BNVN0020",2,4,1,2,3,1434,803,0,0,"a.sham","1","no_press",0,"NGW","noGo",1,72,"1",18,"neutral","Win",NA,"no_press",0,NA
"393","BNVN0020",4,4,1,2,3,1289,790,656,1,"a.sham","1","press",1,"GW","Go",1,73,"1",17,"win","Win","win","press",1,"press"
"394","BNVN0020",1,4,1,2,3,2087,623,734,0,"a.sham","1","press",1,"GAL","Go",1,74,"1",20,"neutral","Avoid",NA,"press",1,"press"
"395","BNVN0020",2,4,1,2,3,2103,595,0,0,"a.sham","1","no_press",0,"NGW","noGo",1,75,"1",19,"neutral","Win",NA,"press",0,NA
"396","BNVN0020",4,4,1,2,3,2121,936,581,1,"a.sham","1","press",1,"GW","Go",1,76,"1",18,"win","Win","win","press",1,"press"
"397","BNVN0020",4,4,1,2,3,1851,777,762,1,"a.sham","1","press",1,"GW","Go",1,77,"1",19,"win","Win","win","press",1,"press"
"398","BNVN0020",2,4,1,2,3,1959,802,479,0,"a.sham","1","press",1,"NGW","noGo",0,78,"1",20,"neutral","Win",NA,"press",1,"press"
"399","BNVN0020",4,4,1,2,3,3385,823,837,1,"a.sham","1","press",1,"GW","Go",1,79,"1",20,"win","Win","win","press",1,"press"
"400","BNVN0020",3,4,1,2,3,1883,502,0,-1,"a.sham","1","no_press",0,"NGL","noGo",1,80,"1",20,"lose","Avoid","lose","press",0,NA
"401","BNVN0020",6,6,7,8,5,1465,843,1397,1,"a.sham","1","press",1,"GW","Go",1,81,"2",1,"win","Win","win","press",1,"press"
"402","BNVN0020",5,6,7,8,5,1456,711,812,-1,"a.sham","1","press",1,"NGL","noGo",0,82,"2",1,"lose","Avoid","lose","no_press",1,"no_press"
"403","BNVN0020",8,6,7,8,5,2700,519,850,0,"a.sham","1","press",1,"NGW","noGo",0,83,"2",1,"neutral","Win",NA,"press",1,"press"
"404","BNVN0020",5,6,7,8,5,1505,945,0,0,"a.sham","1","no_press",0,"NGL","noGo",1,84,"2",2,"neutral","Avoid",NA,"no_press",1,"no_press"
"405","BNVN0020",7,6,7,8,5,2252,511,1067,0,"a.sham","1","press",1,"GAL","Go",1,85,"2",1,"neutral","Avoid",NA,"press",1,"press"
"406","BNVN0020",7,6,7,8,5,1495,528,776,0,"a.sham","1","press",1,"GAL","Go",1,86,"2",2,"neutral","Avoid",NA,"no_press",1,"no_press"
"407","BNVN0020",5,6,7,8,5,2018,879,0,0,"a.sham","1","no_press",0,"NGL","noGo",1,87,"2",3,"neutral","Avoid",NA,"no_press",1,"no_press"
"408","BNVN0020",6,6,7,8,5,1403,831,542,0,"a.sham","1","press",1,"GW","Go",1,88,"2",2,"neutral","Win",NA,"press",0,NA
"409","BNVN0020",5,6,7,8,5,2143,942,0,0,"a.sham","1","no_press",0,"NGL","noGo",1,89,"2",4,"neutral","Avoid",NA,"no_press",1,"no_press"
"410","BNVN0020",8,6,7,8,5,1433,553,796,0,"a.sham","1","press",1,"NGW","noGo",0,90,"2",2,"neutral","Win",NA,"no_press",1,"no_press"
"411","BNVN0020",5,6,7,8,5,1963,892,0,0,"a.sham","1","no_press",0,"NGL","noGo",1,91,"2",5,"neutral","Avoid",NA,"no_press",1,"no_press"
"412","BNVN0020",8,6,7,8,5,1890,541,0,1,"a.sham","1","no_press",0,"NGW","noGo",1,92,"2",3,"win","Win","win","press",1,"press"
"413","BNVN0020",6,6,7,8,5,2254,876,1351,1,"a.sham","1","press",1,"GW","Go",1,93,"2",3,"win","Win","win","press",1,"press"
"414","BNVN0020",6,6,7,8,5,2306,927,937,1,"a.sham","1","press",1,"GW","Go",1,94,"2",4,"win","Win","win","press",1,"press"
"415","BNVN0020",5,6,7,8,5,1671,969,0,0,"a.sham","1","no_press",0,"NGL","noGo",1,95,"2",6,"neutral","Avoid",NA,"no_press",1,"no_press"
"416","BNVN0020",6,6,7,8,5,1927,736,465,1,"a.sham","1","press",1,"GW","Go",1,96,"2",5,"win","Win","win","press",1,"press"
"417","BNVN0020",8,6,7,8,5,1966,998,1063,0,"a.sham","1","press",1,"NGW","noGo",0,97,"2",4,"neutral","Win",NA,"no_press",1,"no_press"
"418","BNVN0020",7,6,7,8,5,1936,808,0,-1,"a.sham","1","no_press",0,"GAL","Go",0,98,"2",3,"lose","Avoid","lose","press",1,"press"
"419","BNVN0020",8,6,7,8,5,1723,638,0,1,"a.sham","1","no_press",0,"NGW","noGo",1,99,"2",5,"win","Win","win","no_press",1,"no_press"
"420","BNVN0020",8,6,7,8,5,1702,753,0,1,"a.sham","1","no_press",0,"NGW","noGo",1,100,"2",6,"win","Win","win","no_press",1,"no_press"
"421","BNVN0020",7,6,7,8,5,1250,984,690,-1,"a.sham","1","press",1,"GAL","Go",1,101,"2",4,"lose","Avoid","lose","no_press",0,NA
"422","BNVN0020",7,6,7,8,5,2510,706,0,-1,"a.sham","1","no_press",0,"GAL","Go",0,102,"2",5,"lose","Avoid","lose","press",1,"press"
"423","BNVN0020",6,6,7,8,5,1885,570,711,1,"a.sham","1","press",1,"GW","Go",1,103,"2",6,"win","Win","win","press",1,"press"
"424","BNVN0020",8,6,7,8,5,1845,729,0,0,"a.sham","1","no_press",0,"NGW","noGo",1,104,"2",7,"neutral","Win",NA,"no_press",0,NA
"425","BNVN0020",5,6,7,8,5,1000,713,0,0,"a.sham","1","no_press",0,"NGL","noGo",1,105,"2",7,"neutral","Avoid",NA,"no_press",1,"no_press"
"426","BNVN0020",7,6,7,8,5,1655,934,942,0,"a.sham","1","press",1,"GAL","Go",1,106,"2",6,"neutral","Avoid",NA,"press",1,"press"
"427","BNVN0020",5,6,7,8,5,1453,818,0,0,"a.sham","1","no_press",0,"NGL","noGo",1,107,"2",8,"neutral","Avoid",NA,"no_press",1,"no_press"
"428","BNVN0020",8,6,7,8,5,3128,629,0,0,"a.sham","1","no_press",0,"NGW","noGo",1,108,"2",8,"neutral","Win",NA,"no_press",0,NA
"429","BNVN0020",5,6,7,8,5,1504,564,0,0,"a.sham","1","no_press",0,"NGL","noGo",1,109,"2",9,"neutral","Avoid",NA,"no_press",1,"no_press"
"430","BNVN0020",6,6,7,8,5,1736,631,690,1,"a.sham","1","press",1,"GW","Go",1,110,"2",7,"win","Win","win","press",1,"press"
"431","BNVN0020",5,6,7,8,5,2964,500,0,0,"a.sham","1","no_press",0,"NGL","noGo",1,111,"2",10,"neutral","Avoid",NA,"no_press",1,"no_press"
"432","BNVN0020",8,6,7,8,5,2318,885,0,1,"a.sham","1","no_press",0,"NGW","noGo",1,112,"2",9,"win","Win","win","no_press",1,"no_press"
"433","BNVN0020",5,6,7,8,5,2724,596,0,0,"a.sham","1","no_press",0,"NGL","noGo",1,113,"2",11,"neutral","Avoid",NA,"no_press",1,"no_press"
"434","BNVN0020",5,6,7,8,5,1921,850,0,0,"a.sham","1","no_press",0,"NGL","noGo",1,114,"2",12,"neutral","Avoid",NA,"press",1,"press"
"435","BNVN0020",5,6,7,8,5,1622,524,1015,-1,"a.sham","1","press",1,"NGL","noGo",0,115,"2",13,"lose","Avoid","lose","no_press",1,"no_press"
"436","BNVN0020",8,6,7,8,5,2549,936,0,1,"a.sham","1","no_press",0,"NGW","noGo",1,116,"2",10,"win","Win","win","no_press",1,"no_press"
"437","BNVN0020",5,6,7,8,5,1575,977,0,-1,"a.sham","1","no_press",0,"NGL","noGo",1,117,"2",14,"lose","Avoid","lose","no_press",0,NA
"438","BNVN0020",7,6,7,8,5,2388,633,1003,0,"a.sham","1","press",1,"GAL","Go",1,118,"2",7,"neutral","Avoid",NA,"no_press",1,"no_press"
"439","BNVN0020",7,6,7,8,5,1552,570,0,0,"a.sham","1","no_press",0,"GAL","Go",0,119,"2",8,"neutral","Avoid",NA,"press",0,NA
"440","BNVN0020",6,6,7,8,5,2548,550,699,1,"a.sham","1","press",1,"GW","Go",1,120,"2",8,"win","Win","win","press",1,"press"
"441","BNVN0020",7,6,7,8,5,2299,900,740,0,"a.sham","1","press",1,"GAL","Go",1,121,"2",9,"neutral","Avoid",NA,"press",1,"press"
"442","BNVN0020",6,6,7,8,5,1932,777,639,0,"a.sham","1","press",1,"GW","Go",1,122,"2",9,"neutral","Win",NA,"press",0,NA
"443","BNVN0020",7,6,7,8,5,1000,941,710,0,"a.sham","1","press",1,"GAL","Go",1,123,"2",10,"neutral","Avoid",NA,"no_press",1,"no_press"
"444","BNVN0020",6,6,7,8,5,2745,720,629,1,"a.sham","1","press",1,"GW","Go",1,124,"2",10,"win","Win","win","press",1,"press"
"445","BNVN0020",8,6,7,8,5,2274,923,0,0,"a.sham","1","no_press",0,"NGW","noGo",1,125,"2",11,"neutral","Win",NA,"press",0,NA
"446","BNVN0020",7,6,7,8,5,2251,629,0,-1,"a.sham","1","no_press",0,"GAL","Go",0,126,"2",11,"lose","Avoid","lose","press",1,"press"
"447","BNVN0020",7,6,7,8,5,2206,543,691,0,"a.sham","1","press",1,"GAL","Go",1,127,"2",12,"neutral","Avoid",NA,"press",1,"press"
"448","BNVN0020",8,6,7,8,5,1182,521,683,0,"a.sham","1","press",1,"NGW","noGo",0,128,"2",12,"neutral","Win",NA,"no_press",1,"no_press"
"449","BNVN0020",7,6,7,8,5,2817,605,801,-1,"a.sham","1","press",1,"GAL","Go",1,129,"2",13,"lose","Avoid","lose","no_press",0,NA
"450","BNVN0020",8,6,7,8,5,2184,966,0,1,"a.sham","1","no_press",0,"NGW","noGo",1,130,"2",13,"win","Win","win","no_press",1,"no_press"
"451","BNVN0020",5,6,7,8,5,2036,701,0,-1,"a.sham","1","no_press",0,"NGL","noGo",1,131,"2",15,"lose","Avoid","lose","no_press",0,NA
"452","BNVN0020",6,6,7,8,5,1939,580,700,1,"a.sham","1","press",1,"GW","Go",1,132,"2",11,"win","Win","win","press",1,"press"
"453","BNVN0020",7,6,7,8,5,2218,670,0,-1,"a.sham","1","no_press",0,"GAL","Go",0,133,"2",14,"lose","Avoid","lose","press",1,"press"
"454","BNVN0020",7,6,7,8,5,1678,557,674,0,"a.sham","1","press",1,"GAL","Go",1,134,"2",15,"neutral","Avoid",NA,"press",1,"press"
"455","BNVN0020",7,6,7,8,5,2907,951,1010,0,"a.sham","1","press",1,"GAL","Go",1,135,"2",16,"neutral","Avoid",NA,"no_press",1,"no_press"
"456","BNVN0020",5,6,7,8,5,2171,651,0,0,"a.sham","1","no_press",0,"NGL","noGo",1,136,"2",16,"neutral","Avoid",NA,"no_press",1,"no_press"
"457","BNVN0020",6,6,7,8,5,1547,952,539,1,"a.sham","1","press",1,"GW","Go",1,137,"2",12,"win","Win","win","press",1,"press"
"458","BNVN0020",7,6,7,8,5,1445,795,0,-1,"a.sham","1","no_press",0,"GAL","Go",0,138,"2",17,"lose","Avoid","lose","press",1,"press"
"459","BNVN0020",5,6,7,8,5,2415,626,0,0,"a.sham","1","no_press",0,"NGL","noGo",1,139,"2",17,"neutral","Avoid",NA,"no_press",1,"no_press"
"460","BNVN0020",8,6,7,8,5,2212,794,0,1,"a.sham","1","no_press",0,"NGW","noGo",1,140,"2",14,"win","Win","win","no_press",1,"no_press"
"461","BNVN0020",8,6,7,8,5,2887,937,0,1,"a.sham","1","no_press",0,"NGW","noGo",1,141,"2",15,"win","Win","win","no_press",1,"no_press"
"462","BNVN0020",5,6,7,8,5,1281,530,0,0,"a.sham","1","no_press",0,"NGL","noGo",1,142,"2",18,"neutral","Avoid",NA,"no_press",1,"no_press"
"463","BNVN0020",8,6,7,8,5,2074,781,0,1,"a.sham","1","no_press",0,"NGW","noGo",1,143,"2",16,"win","Win","win","no_press",1,"no_press"
"464","BNVN0020",6,6,7,8,5,2272,782,722,0,"a.sham","1","press",1,"GW","Go",1,144,"2",13,"neutral","Win",NA,"press",0,NA
"465","BNVN0020",7,6,7,8,5,1133,743,728,0,"a.sham","1","press",1,"GAL","Go",1,145,"2",18,"neutral","Avoid",NA,"press",1,"press"
"466","BNVN0020",6,6,7,8,5,1576,908,766,1,"a.sham","1","press",1,"GW","Go",1,146,"2",14,"win","Win","win","press",1,"press"
"467","BNVN0020",8,6,7,8,5,2467,966,0,1,"a.sham","1","no_press",0,"NGW","noGo",1,147,"2",17,"win","Win","win","no_press",1,"no_press"
"468","BNVN0020",8,6,7,8,5,2096,720,0,1,"a.sham","1","no_press",0,"NGW","noGo",1,148,"2",18,"win","Win","win","no_press",1,"no_press"
"469","BNVN0020",8,6,7,8,5,1951,602,0,0,"a.sham","1","no_press",0,"NGW","noGo",1,149,"2",19,"neutral","Win",NA,"no_press",0,NA
"470","BNVN0020",8,6,7,8,5,1468,822,0,1,"a.sham","1","no_press",0,"NGW","noGo",1,150,"2",20,"win","Win","win","no_press",1,"no_press"
"471","BNVN0020",7,6,7,8,5,1948,675,999,-1,"a.sham","1","press",1,"GAL","Go",1,151,"2",19,"lose","Avoid","lose","press",0,NA
"472","BNVN0020",6,6,7,8,5,2088,606,804,1,"a.sham","1","press",1,"GW","Go",1,152,"2",15,"win","Win","win","press",1,"press"
"473","BNVN0020",6,6,7,8,5,2528,625,657,1,"a.sham","1","press",1,"GW","Go",1,153,"2",16,"win","Win","win","press",1,"press"
"474","BNVN0020",6,6,7,8,5,1990,770,700,1,"a.sham","1","press",1,"GW","Go",1,154,"2",17,"win","Win","win","press",1,"press"
"475","BNVN0020",6,6,7,8,5,1674,626,926,0,"a.sham","1","press",1,"GW","Go",1,155,"2",18,"neutral","Win",NA,"press",0,NA
"476","BNVN0020",6,6,7,8,5,3323,879,822,1,"a.sham","1","press",1,"GW","Go",1,156,"2",19,"win","Win","win","press",1,"press"
"477","BNVN0020",6,6,7,8,5,2380,574,533,1,"a.sham","1","press",1,"GW","Go",1,157,"2",20,"win","Win","win","press",1,"press"
"478","BNVN0020",7,6,7,8,5,1922,770,693,0,"a.sham","1","press",1,"GAL","Go",1,158,"2",20,"neutral","Avoid",NA,"press",1,"press"
"479","BNVN0020",5,6,7,8,5,2099,880,0,0,"a.sham","1","no_press",0,"NGL","noGo",1,159,"2",19,"neutral","Avoid",NA,"no_press",1,"no_press"
"480","BNVN0020",5,6,7,8,5,1518,818,0,-1,"a.sham","1","no_press",0,"NGL","noGo",1,160,"2",20,"lose","Avoid","lose","no_press",0,NA
"481","BNVN0020",10,10,11,12,9,1509,760,1052,1,"a.sham","1","press",1,"GW","Go",1,161,"3",1,"win","Win","win","press",1,"press"
"482","BNVN0020",12,10,11,12,9,2359,719,0,1,"a.sham","1","no_press",0,"NGW","noGo",1,162,"3",1,"win","Win","win","no_press",1,"no_press"
"483","BNVN0020",9,10,11,12,9,2478,530,0,0,"a.sham","1","no_press",0,"NGL","noGo",1,163,"3",1,"neutral","Avoid",NA,"no_press",1,"no_press"
"484","BNVN0020",11,10,11,12,9,1703,725,893,-1,"a.sham","1","press",1,"GAL","Go",1,164,"3",1,"lose","Avoid","lose","no_press",0,NA
"485","BNVN0020",9,10,11,12,9,2045,958,0,0,"a.sham","1","no_press",0,"NGL","noGo",1,165,"3",2,"neutral","Avoid",NA,"no_press",1,"no_press"
"486","BNVN0020",11,10,11,12,9,1746,671,0,0,"a.sham","1","no_press",0,"GAL","Go",0,166,"3",2,"neutral","Avoid",NA,"no_press",0,NA
"487","BNVN0020",11,10,11,12,9,1187,886,0,-1,"a.sham","1","no_press",0,"GAL","Go",0,167,"3",3,"lose","Avoid","lose","no_press",1,"no_press"
"488","BNVN0020",10,10,11,12,9,2152,605,923,1,"a.sham","1","press",1,"GW","Go",1,168,"3",2,"win","Win","win","press",1,"press"
"489","BNVN0020",12,10,11,12,9,1826,585,0,1,"a.sham","1","no_press",0,"NGW","noGo",1,169,"3",2,"win","Win","win","no_press",1,"no_press"
"490","BNVN0020",12,10,11,12,9,2481,684,0,1,"a.sham","1","no_press",0,"NGW","noGo",1,170,"3",3,"win","Win","win","no_press",1,"no_press"
"491","BNVN0020",9,10,11,12,9,1717,781,0,0,"a.sham","1","no_press",0,"NGL","noGo",1,171,"3",3,"neutral","Avoid",NA,"no_press",1,"no_press"
"492","BNVN0020",9,10,11,12,9,1304,822,0,0,"a.sham","1","no_press",0,"NGL","noGo",1,172,"3",4,"neutral","Avoid",NA,"no_press",1,"no_press"
"493","BNVN0020",12,10,11,12,9,1787,519,0,1,"a.sham","1","no_press",0,"NGW","noGo",1,173,"3",4,"win","Win","win","no_press",1,"no_press"
"494","BNVN0020",11,10,11,12,9,2122,730,0,0,"a.sham","1","no_press",0,"GAL","Go",0,174,"3",4,"neutral","Avoid",NA,"no_press",0,NA
"495","BNVN0020",12,10,11,12,9,1908,526,0,1,"a.sham","1","no_press",0,"NGW","noGo",1,175,"3",5,"win","Win","win","no_press",1,"no_press"
"496","BNVN0020",11,10,11,12,9,2719,894,0,-1,"a.sham","1","no_press",0,"GAL","Go",0,176,"3",5,"lose","Avoid","lose","press",1,"press"
"497","BNVN0020",10,10,11,12,9,2538,982,1395,0,"a.sham","1","press",1,"GW","Go",1,177,"3",3,"neutral","Win",NA,"press",0,NA
"498","BNVN0020",11,10,11,12,9,1788,811,1422,0,"a.sham","1","press",1,"GAL","Go",1,178,"3",6,"neutral","Avoid",NA,"no_press",1,"no_press"
"499","BNVN0020",12,10,11,12,9,2745,525,0,0,"a.sham","1","no_press",0,"NGW","noGo",1,179,"3",6,"neutral","Win",NA,"no_press",0,NA
"500","BNVN0020",11,10,11,12,9,1807,881,0,-1,"a.sham","1","no_press",0,"GAL","Go",0,180,"3",7,"lose","Avoid","lose","press",1,"press"
"501","BNVN0020",12,10,11,12,9,3876,758,0,1,"a.sham","1","no_press",0,"NGW","noGo",1,181,"3",7,"win","Win","win","no_press",1,"no_press"
"502","BNVN0020",9,10,11,12,9,1615,939,0,0,"a.sham","1","no_press",0,"NGL","noGo",1,182,"3",5,"neutral","Avoid",NA,"no_press",1,"no_press"
"503","BNVN0020",11,10,11,12,9,2451,933,1156,-1,"a.sham","1","press",1,"GAL","Go",1,183,"3",8,"lose","Avoid","lose","no_press",0,NA
"504","BNVN0020",10,10,11,12,9,1894,800,820,1,"a.sham","1","press",1,"GW","Go",1,184,"3",4,"win","Win","win","press",1,"press"
"505","BNVN0020",10,10,11,12,9,2571,730,907,1,"a.sham","1","press",1,"GW","Go",1,185,"3",5,"win","Win","win","press",1,"press"
"506","BNVN0020",10,10,11,12,9,2004,581,764,1,"a.sham","1","press",1,"GW","Go",1,186,"3",6,"win","Win","win","press",1,"press"
"507","BNVN0020",9,10,11,12,9,2336,656,0,0,"a.sham","1","no_press",0,"NGL","noGo",1,187,"3",6,"neutral","Avoid",NA,"no_press",1,"no_press"
"508","BNVN0020",9,10,11,12,9,1565,978,0,-1,"a.sham","1","no_press",0,"NGL","noGo",1,188,"3",7,"lose","Avoid","lose","no_press",0,NA
"509","BNVN0020",9,10,11,12,9,1678,817,0,0,"a.sham","1","no_press",0,"NGL","noGo",1,189,"3",8,"neutral","Avoid",NA,"no_press",1,"no_press"
"510","BNVN0020",11,10,11,12,9,2337,933,0,-1,"a.sham","1","no_press",0,"GAL","Go",0,190,"3",9,"lose","Avoid","lose","press",1,"press"
"511","BNVN0020",10,10,11,12,9,1620,572,676,1,"a.sham","1","press",1,"GW","Go",1,191,"3",7,"win","Win","win","press",1,"press"
"512","BNVN0020",12,10,11,12,9,1725,761,0,0,"a.sham","1","no_press",0,"NGW","noGo",1,192,"3",8,"neutral","Win",NA,"no_press",0,NA
"513","BNVN0020",9,10,11,12,9,1937,951,0,0,"a.sham","1","no_press",0,"NGL","noGo",1,193,"3",9,"neutral","Avoid",NA,"no_press",1,"no_press"
"514","BNVN0020",10,10,11,12,9,1432,736,545,0,"a.sham","1","press",1,"GW","Go",1,194,"3",8,"neutral","Win",NA,"press",0,NA
"515","BNVN0020",10,10,11,12,9,2518,680,711,1,"a.sham","1","press",1,"GW","Go",1,195,"3",9,"win","Win","win","press",1,"press"
"516","BNVN0020",11,10,11,12,9,1721,909,857,0,"a.sham","1","press",1,"GAL","Go",1,196,"3",10,"neutral","Avoid",NA,"press",1,"press"
"517","BNVN0020",11,10,11,12,9,1249,820,831,0,"a.sham","1","press",1,"GAL","Go",1,197,"3",11,"neutral","Avoid",NA,"press",1,"press"
"518","BNVN0020",12,10,11,12,9,2273,779,0,1,"a.sham","1","no_press",0,"NGW","noGo",1,198,"3",9,"win","Win","win","no_press",1,"no_press"
"519","BNVN0020",11,10,11,12,9,1967,562,936,0,"a.sham","1","press",1,"GAL","Go",1,199,"3",12,"neutral","Avoid",NA,"press",1,"press"
"520","BNVN0020",10,10,11,12,9,1987,908,451,0,"a.sham","1","press",1,"GW","Go",1,200,"3",10,"neutral","Win",NA,"press",0,NA
"521","BNVN0020",11,10,11,12,9,1888,901,705,0,"a.sham","1","press",1,"GAL","Go",1,201,"3",13,"neutral","Avoid",NA,"press",1,"press"
"522","BNVN0020",10,10,11,12,9,1688,664,679,1,"a.sham","1","press",1,"GW","Go",1,202,"3",11,"win","Win","win","press",1,"press"
"523","BNVN0020",10,10,11,12,9,2131,902,691,1,"a.sham","1","press",1,"GW","Go",1,203,"3",12,"win","Win","win","press",1,"press"
"524","BNVN0020",12,10,11,12,9,2444,519,0,1,"a.sham","1","no_press",0,"NGW","noGo",1,204,"3",10,"win","Win","win","no_press",1,"no_press"
"525","BNVN0020",12,10,11,12,9,1879,994,0,0,"a.sham","1","no_press",0,"NGW","noGo",1,205,"3",11,"neutral","Win",NA,"no_press",0,NA
"526","BNVN0020",10,10,11,12,9,2185,780,777,1,"a.sham","1","press",1,"GW","Go",1,206,"3",13,"win","Win","win","press",1,"press"
"527","BNVN0020",10,10,11,12,9,2557,602,769,1,"a.sham","1","press",1,"GW","Go",1,207,"3",14,"win","Win","win","press",1,"press"
"528","BNVN0020",11,10,11,12,9,3158,508,852,0,"a.sham","1","press",1,"GAL","Go",1,208,"3",14,"neutral","Avoid",NA,"press",1,"press"
"529","BNVN0020",12,10,11,12,9,1000,613,0,1,"a.sham","1","no_press",0,"NGW","noGo",1,209,"3",12,"win","Win","win","no_press",1,"no_press"
"530","BNVN0020",12,10,11,12,9,3020,598,0,1,"a.sham","1","no_press",0,"NGW","noGo",1,210,"3",13,"win","Win","win","no_press",1,"no_press"
"531","BNVN0020",10,10,11,12,9,2029,514,696,1,"a.sham","1","press",1,"GW","Go",1,211,"3",15,"win","Win","win","no_press",1,"no_press"
"532","BNVN0020",12,10,11,12,9,2335,704,0,1,"a.sham","1","no_press",0,"NGW","noGo",1,212,"3",14,"win","Win","win","no_press",1,"no_press"
"533","BNVN0020",10,10,11,12,9,2381,644,0,0,"a.sham","1","no_press",0,"GW","Go",0,213,"3",16,"neutral","Win",NA,"press",1,"press"
"534","BNVN0020",12,10,11,12,9,1639,990,0,1,"a.sham","1","no_press",0,"NGW","noGo",1,214,"3",15,"win","Win","win","no_press",1,"no_press"
"535","BNVN0020",9,10,11,12,9,1761,628,0,-1,"a.sham","1","no_press",0,"NGL","noGo",1,215,"3",10,"lose","Avoid","lose","press",0,NA
"536","BNVN0020",9,10,11,12,9,2010,759,674,-1,"a.sham","1","press",1,"NGL","noGo",0,216,"3",11,"lose","Avoid","lose","press",1,"press"
"537","BNVN0020",12,10,11,12,9,2299,897,0,0,"a.sham","1","no_press",0,"NGW","noGo",1,217,"3",16,"neutral","Win",NA,"no_press",0,NA
"538","BNVN0020",12,10,11,12,9,1820,578,0,1,"a.sham","1","no_press",0,"NGW","noGo",1,218,"3",17,"win","Win","win","no_press",1,"no_press"
"539","BNVN0020",12,10,11,12,9,2942,997,0,1,"a.sham","1","no_press",0,"NGW","noGo",1,219,"3",18,"win","Win","win","no_press",1,"no_press"
"540","BNVN0020",10,10,11,12,9,2547,957,985,1,"a.sham","1","press",1,"GW","Go",1,220,"3",17,"win","Win","win","press",1,"press"
"541","BNVN0020",9,10,11,12,9,2330,748,759,-1,"a.sham","1","press",1,"NGL","noGo",0,221,"3",12,"lose","Avoid","lose","no_press",1,"no_press"
"542","BNVN0020",9,10,11,12,9,2601,935,0,-1,"a.sham","1","no_press",0,"NGL","noGo",1,222,"3",13,"lose","Avoid","lose","press",0,NA
"543","BNVN0020",10,10,11,12,9,1635,931,564,1,"a.sham","1","press",1,"GW","Go",1,223,"3",18,"win","Win","win","press",1,"press"
"544","BNVN0020",11,10,11,12,9,2107,974,952,0,"a.sham","1","press",1,"GAL","Go",1,224,"3",15,"neutral","Avoid",NA,"press",1,"press"
"545","BNVN0020",9,10,11,12,9,1509,648,646,-1,"a.sham","1","press",1,"NGL","noGo",0,225,"3",14,"lose","Avoid","lose","no_press",1,"no_press"
"546","BNVN0020",12,10,11,12,9,5000,839,0,1,"a.sham","1","no_press",0,"NGW","noGo",1,226,"3",19,"win","Win","win","no_press",1,"no_press"
"547","BNVN0020",12,10,11,12,9,2234,989,0,1,"a.sham","1","no_press",0,"NGW","noGo",1,227,"3",20,"win","Win","win","press",1,"press"
"548","BNVN0020",9,10,11,12,9,1547,585,0,0,"a.sham","1","no_press",0,"NGL","noGo",1,228,"3",15,"neutral","Avoid",NA,"no_press",1,"no_press"
"549","BNVN0020",9,10,11,12,9,2315,774,0,0,"a.sham","1","no_press",0,"NGL","noGo",1,229,"3",16,"neutral","Avoid",NA,"no_press",1,"no_press"
"550","BNVN0020",9,10,11,12,9,2164,622,0,0,"a.sham","1","no_press",0,"NGL","noGo",1,230,"3",17,"neutral","Avoid",NA,"no_press",1,"no_press"
"551","BNVN0020",11,10,11,12,9,2818,587,932,0,"a.sham","1","press",1,"GAL","Go",1,231,"3",16,"neutral","Avoid",NA,"press",1,"press"
"552","BNVN0020",10,10,11,12,9,2482,767,735,0,"a.sham","1","press",1,"GW","Go",1,232,"3",19,"neutral","Win",NA,"press",0,NA
"553","BNVN0020",10,10,11,12,9,1344,965,579,1,"a.sham","1","press",1,"GW","Go",1,233,"3",20,"win","Win","win","press",1,"press"
"554","BNVN0020",9,10,11,12,9,3276,640,0,0,"a.sham","1","no_press",0,"NGL","noGo",1,234,"3",18,"neutral","Avoid",NA,"no_press",1,"no_press"
"555","BNVN0020",9,10,11,12,9,2298,671,0,0,"a.sham","1","no_press",0,"NGL","noGo",1,235,"3",19,"neutral","Avoid",NA,"no_press",1,"no_press"
"556","BNVN0020",11,10,11,12,9,1785,928,965,0,"a.sham","1","press",1,"GAL","Go",1,236,"3",17,"neutral","Avoid",NA,"press",1,"press"
"557","BNVN0020",11,10,11,12,9,1596,596,1056,0,"a.sham","1","press",1,"GAL","Go",1,237,"3",18,"neutral","Avoid",NA,"press",1,"press"
"558","BNVN0020",9,10,11,12,9,1932,656,0,0,"a.sham","1","no_press",0,"NGL","noGo",1,238,"3",20,"neutral","Avoid",NA,"press",1,"press"
"559","BNVN0020",11,10,11,12,9,2125,750,1099,0,"a.sham","1","press",1,"GAL","Go",1,239,"3",19,"neutral","Avoid",NA,"press",1,"press"
"560","BNVN0020",11,10,11,12,9,1588,656,582,0,"a.sham","1","press",1,"GAL","Go",1,240,"3",20,"neutral","Avoid",NA,"no_press",1,"no_press"
"561","BNVN0020",16,16,13,14,15,2492,783,907,1,"a.sham","1","press",1,"GW","Go",1,241,"4",1,"win","Win","win","press",1,"press"
"562","BNVN0020",14,16,13,14,15,1869,934,643,0,"a.sham","1","press",1,"NGW","noGo",0,242,"4",1,"neutral","Win",NA,"press",1,"press"
"563","BNVN0020",14,16,13,14,15,2794,638,854,1,"a.sham","1","press",1,"NGW","noGo",0,243,"4",2,"win","Win","win","press",0,NA
"564","BNVN0020",16,16,13,14,15,1346,710,619,1,"a.sham","1","press",1,"GW","Go",1,244,"4",2,"win","Win","win","press",1,"press"
"565","BNVN0020",15,16,13,14,15,1474,840,1089,-1,"a.sham","1","press",1,"NGL","noGo",0,245,"4",1,"lose","Avoid","lose","no_press",1,"no_press"
"566","BNVN0020",15,16,13,14,15,2776,515,0,0,"a.sham","1","no_press",0,"NGL","noGo",1,246,"4",2,"neutral","Avoid",NA,"no_press",1,"no_press"
"567","BNVN0020",13,16,13,14,15,1990,805,0,-1,"a.sham","1","no_press",0,"GAL","Go",0,247,"4",1,"lose","Avoid","lose","press",1,"press"
"568","BNVN0020",16,16,13,14,15,1942,698,436,0,"a.sham","1","press",1,"GW","Go",1,248,"4",3,"neutral","Win",NA,"press",0,NA
"569","BNVN0020",13,16,13,14,15,2873,820,760,0,"a.sham","1","press",1,"GAL","Go",1,249,"4",2,"neutral","Avoid",NA,"no_press",1,"no_press"
"570","BNVN0020",14,16,13,14,15,2221,916,1147,0,"a.sham","1","press",1,"NGW","noGo",0,250,"4",3,"neutral","Win",NA,"no_press",1,"no_press"
"571","BNVN0020",13,16,13,14,15,1822,631,0,0,"a.sham","1","no_press",0,"GAL","Go",0,251,"4",3,"neutral","Avoid",NA,"no_press",0,NA
"572","BNVN0020",15,16,13,14,15,1965,629,0,0,"a.sham","1","no_press",0,"NGL","noGo",1,252,"4",3,"neutral","Avoid",NA,"no_press",1,"no_press"
"573","BNVN0020",14,16,13,14,15,2344,518,0,1,"a.sham","1","no_press",0,"NGW","noGo",1,253,"4",4,"win","Win","win","no_press",1,"no_press"
"574","BNVN0020",15,16,13,14,15,2291,863,0,0,"a.sham","1","no_press",0,"NGL","noGo",1,254,"4",4,"neutral","Avoid",NA,"no_press",1,"no_press"
"575","BNVN0020",15,16,13,14,15,2169,664,0,0,"a.sham","1","no_press",0,"NGL","noGo",1,255,"4",5,"neutral","Avoid",NA,"no_press",1,"no_press"
"576","BNVN0020",15,16,13,14,15,2019,609,0,0,"a.sham","1","no_press",0,"NGL","noGo",1,256,"4",6,"neutral","Avoid",NA,"no_press",1,"no_press"
"577","BNVN0020",14,16,13,14,15,2063,625,0,0,"a.sham","1","no_press",0,"NGW","noGo",1,257,"4",5,"neutral","Win",NA,"press",0,NA
"578","BNVN0020",16,16,13,14,15,1855,934,566,1,"a.sham","1","press",1,"GW","Go",1,258,"4",4,"win","Win","win","press",1,"press"
"579","BNVN0020",15,16,13,14,15,1772,645,0,0,"a.sham","1","no_press",0,"NGL","noGo",1,259,"4",7,"neutral","Avoid",NA,"no_press",1,"no_press"
"580","BNVN0020",13,16,13,14,15,1630,660,0,-1,"a.sham","1","no_press",0,"GAL","Go",0,260,"4",4,"lose","Avoid","lose","no_press",1,"no_press"
"581","BNVN0020",15,16,13,14,15,2084,570,0,0,"a.sham","1","no_press",0,"NGL","noGo",1,261,"4",8,"neutral","Avoid",NA,"no_press",1,"no_press"
"582","BNVN0020",13,16,13,14,15,2018,955,0,-1,"a.sham","1","no_press",0,"GAL","Go",0,262,"4",5,"lose","Avoid","lose","press",1,"press"
"583","BNVN0020",16,16,13,14,15,2381,643,663,1,"a.sham","1","press",1,"GW","Go",1,263,"4",5,"win","Win","win","press",1,"press"
"584","BNVN0020",13,16,13,14,15,3099,550,999,0,"a.sham","1","press",1,"GAL","Go",1,264,"4",6,"neutral","Avoid",NA,"press",1,"press"
"585","BNVN0020",13,16,13,14,15,1825,598,536,-1,"a.sham","1","press",1,"GAL","Go",1,265,"4",7,"lose","Avoid","lose","no_press",0,NA
"586","BNVN0020",16,16,13,14,15,2402,775,514,1,"a.sham","1","press",1,"GW","Go",1,266,"4",6,"win","Win","win","press",1,"press"
"587","BNVN0020",15,16,13,14,15,2348,591,0,0,"a.sham","1","no_press",0,"NGL","noGo",1,267,"4",9,"neutral","Avoid",NA,"no_press",1,"no_press"
"588","BNVN0020",14,16,13,14,15,2357,966,867,0,"a.sham","1","press",1,"NGW","noGo",0,268,"4",6,"neutral","Win",NA,"press",1,"press"
"589","BNVN0020",16,16,13,14,15,2228,968,638,1,"a.sham","1","press",1,"GW","Go",1,269,"4",7,"win","Win","win","press",1,"press"
"590","BNVN0020",15,16,13,14,15,2237,541,0,-1,"a.sham","1","no_press",0,"NGL","noGo",1,270,"4",10,"lose","Avoid","lose","no_press",0,NA
"591","BNVN0020",14,16,13,14,15,2695,665,976,0,"a.sham","1","press",1,"NGW","noGo",0,271,"4",7,"neutral","Win",NA,"no_press",1,"no_press"
"592","BNVN0020",14,16,13,14,15,3626,871,0,1,"a.sham","1","no_press",0,"NGW","noGo",1,272,"4",8,"win","Win","win","press",1,"press"
"593","BNVN0020",15,16,13,14,15,1861,748,0,0,"a.sham","1","no_press",0,"NGL","noGo",1,273,"4",11,"neutral","Avoid",NA,"no_press",1,"no_press"
"594","BNVN0020",13,16,13,14,15,2139,811,0,-1,"a.sham","1","no_press",0,"GAL","Go",0,274,"4",8,"lose","Avoid","lose","press",1,"press"
"595","BNVN0020",16,16,13,14,15,2044,611,683,1,"a.sham","1","press",1,"GW","Go",1,275,"4",8,"win","Win","win","press",1,"press"
"596","BNVN0020",15,16,13,14,15,2319,797,0,0,"a.sham","1","no_press",0,"NGL","noGo",1,276,"4",12,"neutral","Avoid",NA,"no_press",1,"no_press"
"597","BNVN0020",16,16,13,14,15,2446,855,701,1,"a.sham","1","press",1,"GW","Go",1,277,"4",9,"win","Win","win","press",1,"press"
"598","BNVN0020",15,16,13,14,15,2227,989,0,0,"a.sham","1","no_press",0,"NGL","noGo",1,278,"4",13,"neutral","Avoid",NA,"no_press",1,"no_press"
"599","BNVN0020",16,16,13,14,15,1880,832,536,1,"a.sham","1","press",1,"GW","Go",1,279,"4",10,"win","Win","win","press",1,"press"
"600","BNVN0020",16,16,13,14,15,1798,501,633,0,"a.sham","1","press",1,"GW","Go",1,280,"4",11,"neutral","Win",NA,"press",0,NA
"601","BNVN0020",14,16,13,14,15,2511,981,995,0,"a.sham","1","press",1,"NGW","noGo",0,281,"4",9,"neutral","Win",NA,"press",1,"press"
"602","BNVN0020",15,16,13,14,15,2277,902,0,0,"a.sham","1","no_press",0,"NGL","noGo",1,282,"4",14,"neutral","Avoid",NA,"no_press",1,"no_press"
"603","BNVN0020",15,16,13,14,15,1240,943,0,-1,"a.sham","1","no_press",0,"NGL","noGo",1,283,"4",15,"lose","Avoid","lose","no_press",0,NA
"604","BNVN0020",14,16,13,14,15,2692,677,663,0,"a.sham","1","press",1,"NGW","noGo",0,284,"4",10,"neutral","Win",NA,"no_press",1,"no_press"
"605","BNVN0020",14,16,13,14,15,1678,753,0,1,"a.sham","1","no_press",0,"NGW","noGo",1,285,"4",11,"win","Win","win","no_press",1,"no_press"
"606","BNVN0020",14,16,13,14,15,1771,635,0,1,"a.sham","1","no_press",0,"NGW","noGo",1,286,"4",12,"win","Win","win","no_press",1,"no_press"
"607","BNVN0020",13,16,13,14,15,1885,578,854,0,"a.sham","1","press",1,"GAL","Go",1,287,"4",9,"neutral","Avoid",NA,"no_press",1,"no_press"
"608","BNVN0020",14,16,13,14,15,1909,851,0,1,"a.sham","1","no_press",0,"NGW","noGo",1,288,"4",13,"win","Win","win","no_press",1,"no_press"
"609","BNVN0020",14,16,13,14,15,1537,532,0,1,"a.sham","1","no_press",0,"NGW","noGo",1,289,"4",14,"win","Win","win","no_press",1,"no_press"
"610","BNVN0020",13,16,13,14,15,1206,575,0,-1,"a.sham","1","no_press",0,"GAL","Go",0,290,"4",10,"lose","Avoid","lose","press",1,"press"
"611","BNVN0020",15,16,13,14,15,2195,614,0,-1,"a.sham","1","no_press",0,"NGL","noGo",1,291,"4",16,"lose","Avoid","lose","no_press",0,NA
"612","BNVN0020",16,16,13,14,15,1543,525,586,1,"a.sham","1","press",1,"GW","Go",1,292,"4",12,"win","Win","win","press",1,"press"
"613","BNVN0020",16,16,13,14,15,2057,758,799,1,"a.sham","1","press",1,"GW","Go",1,293,"4",13,"win","Win","win","press",1,"press"
"614","BNVN0020",14,16,13,14,15,1196,813,0,0,"a.sham","1","no_press",0,"NGW","noGo",1,294,"4",15,"neutral","Win",NA,"no_press",0,NA
"615","BNVN0020",15,16,13,14,15,1462,770,0,0,"a.sham","1","no_press",0,"NGL","noGo",1,295,"4",17,"neutral","Avoid",NA,"no_press",1,"no_press"
"616","BNVN0020",14,16,13,14,15,1743,521,0,1,"a.sham","1","no_press",0,"NGW","noGo",1,296,"4",16,"win","Win","win","no_press",1,"no_press"
"617","BNVN0020",14,16,13,14,15,1504,923,0,0,"a.sham","1","no_press",0,"NGW","noGo",1,297,"4",17,"neutral","Win",NA,"press",0,NA
"618","BNVN0020",13,16,13,14,15,1964,670,970,0,"a.sham","1","press",1,"GAL","Go",1,298,"4",11,"neutral","Avoid",NA,"press",1,"press"
"619","BNVN0020",13,16,13,14,15,2041,703,774,0,"a.sham","1","press",1,"GAL","Go",1,299,"4",12,"neutral","Avoid",NA,"press",1,"press"
"620","BNVN0020",13,16,13,14,15,1953,531,898,-1,"a.sham","1","press",1,"GAL","Go",1,300,"4",13,"lose","Avoid","lose","press",0,NA
"621","BNVN0020",13,16,13,14,15,2026,836,634,0,"a.sham","1","press",1,"GAL","Go",1,301,"4",14,"neutral","Avoid",NA,"press",1,"press"
"622","BNVN0020",15,16,13,14,15,2234,740,0,-1,"a.sham","1","no_press",0,"NGL","noGo",1,302,"4",18,"lose","Avoid","lose","no_press",0,NA
"623","BNVN0020",13,16,13,14,15,1189,981,682,0,"a.sham","1","press",1,"GAL","Go",1,303,"4",15,"neutral","Avoid",NA,"press",1,"press"
"624","BNVN0020",16,16,13,14,15,1479,865,583,0,"a.sham","1","press",1,"GW","Go",1,304,"4",14,"neutral","Win",NA,"press",0,NA
"625","BNVN0020",13,16,13,14,15,1000,573,899,0,"a.sham","1","press",1,"GAL","Go",1,305,"4",16,"neutral","Avoid",NA,"press",1,"press"
"626","BNVN0020",13,16,13,14,15,2448,766,649,0,"a.sham","1","press",1,"GAL","Go",1,306,"4",17,"neutral","Avoid",NA,"press",1,"press"
"627","BNVN0020",14,16,13,14,15,3515,968,716,0,"a.sham","1","press",1,"NGW","noGo",0,307,"4",18,"neutral","Win",NA,"press",1,"press"
"628","BNVN0020",15,16,13,14,15,2080,843,0,0,"a.sham","1","no_press",0,"NGL","noGo",1,308,"4",19,"neutral","Avoid",NA,"no_press",1,"no_press"
"629","BNVN0020",16,16,13,14,15,1666,773,646,1,"a.sham","1","press",1,"GW","Go",1,309,"4",15,"win","Win","win","press",1,"press"
"630","BNVN0020",13,16,13,14,15,2977,616,789,0,"a.sham","1","press",1,"GAL","Go",1,310,"4",18,"neutral","Avoid",NA,"press",1,"press"
"631","BNVN0020",15,16,13,14,15,1615,728,0,0,"a.sham","1","no_press",0,"NGL","noGo",1,311,"4",20,"neutral","Avoid",NA,NA,1,NA
"632","BNVN0020",16,16,13,14,15,1266,686,620,1,"a.sham","1","press",1,"GW","Go",1,312,"4",16,"win","Win","win","press",1,"press"
"633","BNVN0020",16,16,13,14,15,1848,826,656,1,"a.sham","1","press",1,"GW","Go",1,313,"4",17,"win","Win","win","press",1,"press"
"634","BNVN0020",13,16,13,14,15,1634,911,1346,0,"a.sham","1","press",1,"GAL","Go",1,314,"4",19,"neutral","Avoid",NA,"press",1,"press"
"635","BNVN0020",16,16,13,14,15,2032,576,569,1,"a.sham","1","press",1,"GW","Go",1,315,"4",18,"win","Win","win","press",1,"press"
"636","BNVN0020",13,16,13,14,15,2372,947,1375,0,"a.sham","1","press",1,"GAL","Go",1,316,"4",20,"neutral","Avoid",NA,NA,1,NA
"637","BNVN0020",14,16,13,14,15,2239,644,674,0,"a.sham","1","press",1,"NGW","noGo",0,317,"4",19,"neutral","Win",NA,"no_press",1,"no_press"
"638","BNVN0020",16,16,13,14,15,2367,900,549,0,"a.sham","1","press",1,"GW","Go",1,318,"4",19,"neutral","Win",NA,"press",0,NA
"639","BNVN0020",14,16,13,14,15,2126,913,0,1,"a.sham","1","no_press",0,"NGW","noGo",1,319,"4",20,"win","Win","win",NA,1,NA
"640","BNVN0020",16,16,13,14,15,1965,875,626,1,"a.sham","1","press",1,"GW","Go",1,320,"4",20,"win","Win","win",NA,1,NA
"641","DIVL0216",1,2,3,4,1,1676,517,0,0,"a.sham","3","no_press",0,"NGL","noGo",1,1,"1",1,"neutral","Avoid",NA,"press",1,"press"
"642","DIVL0216",3,2,3,4,1,1755,536,0,-1,"a.sham","3","no_press",0,"GAL","Go",0,2,"1",1,"lose","Avoid","lose","press",1,"press"
"643","DIVL0216",3,2,3,4,1,2674,572,315,-1,"a.sham","3","press",1,"GAL","Go",1,3,"1",2,"lose","Avoid","lose","press",0,NA
"644","DIVL0216",1,2,3,4,1,1486,962,970,-1,"a.sham","3","press",1,"NGL","noGo",0,4,"1",2,"lose","Avoid","lose","press",1,"press"
"645","DIVL0216",4,2,3,4,1,2198,690,578,0,"a.sham","3","press",1,"NGW","noGo",0,5,"1",1,"neutral","Win",NA,"press",1,"press"
"646","DIVL0216",2,2,3,4,1,2158,985,505,1,"a.sham","3","press",1,"GW","Go",1,6,"1",1,"win","Win","win","press",1,"press"
"647","DIVL0216",4,2,3,4,1,1771,786,523,0,"a.sham","3","press",1,"NGW","noGo",0,7,"1",2,"neutral","Win",NA,"press",1,"press"
"648","DIVL0216",3,2,3,4,1,2508,893,440,-1,"a.sham","3","press",1,"GAL","Go",1,8,"1",3,"lose","Avoid","lose","press",0,NA
"649","DIVL0216",2,2,3,4,1,2757,696,439,1,"a.sham","3","press",1,"GW","Go",1,9,"1",2,"win","Win","win","press",1,"press"
"650","DIVL0216",2,2,3,4,1,2082,605,535,1,"a.sham","3","press",1,"GW","Go",1,10,"1",3,"win","Win","win","press",1,"press"
"651","DIVL0216",2,2,3,4,1,1821,778,428,1,"a.sham","3","press",1,"GW","Go",1,11,"1",4,"win","Win","win","press",1,"press"
"652","DIVL0216",4,2,3,4,1,2015,842,634,0,"a.sham","3","press",1,"NGW","noGo",0,12,"1",3,"neutral","Win",NA,"no_press",1,"no_press"
"653","DIVL0216",3,2,3,4,1,1477,581,434,0,"a.sham","3","press",1,"GAL","Go",1,13,"1",4,"neutral","Avoid",NA,"no_press",1,"no_press"
"654","DIVL0216",4,2,3,4,1,1525,631,0,0,"a.sham","3","no_press",0,"NGW","noGo",1,14,"1",4,"neutral","Win",NA,"no_press",0,NA
"655","DIVL0216",3,2,3,4,1,2103,658,0,-1,"a.sham","3","no_press",0,"GAL","Go",0,15,"1",5,"lose","Avoid","lose","press",1,"press"
"656","DIVL0216",2,2,3,4,1,1000,582,402,1,"a.sham","3","press",1,"GW","Go",1,16,"1",5,"win","Win","win","press",1,"press"
"657","DIVL0216",1,2,3,4,1,1616,700,668,-1,"a.sham","3","press",1,"NGL","noGo",0,17,"1",3,"lose","Avoid","lose","no_press",1,"no_press"
"658","DIVL0216",2,2,3,4,1,3088,919,509,1,"a.sham","3","press",1,"GW","Go",1,18,"1",6,"win","Win","win","press",1,"press"
"659","DIVL0216",3,2,3,4,1,1840,599,554,0,"a.sham","3","press",1,"GAL","Go",1,19,"1",6,"neutral","Avoid",NA,"press",1,"press"
"660","DIVL0216",1,2,3,4,1,1989,750,0,0,"a.sham","3","no_press",0,"NGL","noGo",1,20,"1",4,"neutral","Avoid",NA,"no_press",1,"no_press"
"661","DIVL0216",4,2,3,4,1,1712,884,0,1,"a.sham","3","no_press",0,"NGW","noGo",1,21,"1",5,"win","Win","win","no_press",1,"no_press"
"662","DIVL0216",2,2,3,4,1,3465,574,456,1,"a.sham","3","press",1,"GW","Go",1,22,"1",7,"win","Win","win","press",1,"press"
"663","DIVL0216",3,2,3,4,1,1653,733,593,0,"a.sham","3","press",1,"GAL","Go",1,23,"1",7,"neutral","Avoid",NA,"press",1,"press"
"664","DIVL0216",2,2,3,4,1,1160,659,432,1,"a.sham","3","press",1,"GW","Go",1,24,"1",8,"win","Win","win","press",1,"press"
"665","DIVL0216",2,2,3,4,1,2606,999,394,0,"a.sham","3","press",1,"GW","Go",1,25,"1",9,"neutral","Win",NA,"press",0,NA
"666","DIVL0216",2,2,3,4,1,1000,802,449,1,"a.sham","3","press",1,"GW","Go",1,26,"1",10,"win","Win","win","press",1,"press"
"667","DIVL0216",3,2,3,4,1,1486,504,362,0,"a.sham","3","press",1,"GAL","Go",1,27,"1",8,"neutral","Avoid",NA,"press",1,"press"
"668","DIVL0216",3,2,3,4,1,2439,985,388,-1,"a.sham","3","press",1,"GAL","Go",1,28,"1",9,"lose","Avoid","lose","press",0,NA
"669","DIVL0216",4,2,3,4,1,1530,1000,0,1,"a.sham","3","no_press",0,"NGW","noGo",1,29,"1",6,"win","Win","win","no_press",1,"no_press"
"670","DIVL0216",1,2,3,4,1,2964,782,0,0,"a.sham","3","no_press",0,"NGL","noGo",1,30,"1",5,"neutral","Avoid",NA,"no_press",1,"no_press"
"671","DIVL0216",1,2,3,4,1,3377,632,0,0,"a.sham","3","no_press",0,"NGL","noGo",1,31,"1",6,"neutral","Avoid",NA,"no_press",1,"no_press"
"672","DIVL0216",2,2,3,4,1,2136,880,503,0,"a.sham","3","press",1,"GW","Go",1,32,"1",11,"neutral","Win",NA,"press",0,NA
"673","DIVL0216",2,2,3,4,1,1876,845,488,1,"a.sham","3","press",1,"GW","Go",1,33,"1",12,"win","Win","win","press",1,"press"
"674","DIVL0216",3,2,3,4,1,1577,706,508,0,"a.sham","3","press",1,"GAL","Go",1,34,"1",10,"neutral","Avoid",NA,"press",1,"press"
"675","DIVL0216",2,2,3,4,1,1211,630,404,1,"a.sham","3","press",1,"GW","Go",1,35,"1",13,"win","Win","win","press",1,"press"
"676","DIVL0216",4,2,3,4,1,2144,894,0,1,"a.sham","3","no_press",0,"NGW","noGo",1,36,"1",7,"win","Win","win","no_press",1,"no_press"
"677","DIVL0216",2,2,3,4,1,1279,728,451,0,"a.sham","3","press",1,"GW","Go",1,37,"1",14,"neutral","Win",NA,"press",0,NA
"678","DIVL0216",1,2,3,4,1,2172,989,0,0,"a.sham","3","no_press",0,"NGL","noGo",1,38,"1",7,"neutral","Avoid",NA,"no_press",1,"no_press"
"679","DIVL0216",1,2,3,4,1,2308,977,0,0,"a.sham","3","no_press",0,"NGL","noGo",1,39,"1",8,"neutral","Avoid",NA,"no_press",1,"no_press"
"680","DIVL0216",4,2,3,4,1,1816,898,0,1,"a.sham","3","no_press",0,"NGW","noGo",1,40,"1",8,"win","Win","win","no_press",1,"no_press"
"681","DIVL0216",3,2,3,4,1,2116,851,517,0,"a.sham","3","press",1,"GAL","Go",1,41,"1",11,"neutral","Avoid",NA,"press",1,"press"
"682","DIVL0216",3,2,3,4,1,3042,934,533,0,"a.sham","3","press",1,"GAL","Go",1,42,"1",12,"neutral","Avoid",NA,"press",1,"press"
"683","DIVL0216",2,2,3,4,1,1643,610,448,1,"a.sham","3","press",1,"GW","Go",1,43,"1",15,"win","Win","win","press",1,"press"
"684","DIVL0216",1,2,3,4,1,2307,610,0,0,"a.sham","3","no_press",0,"NGL","noGo",1,44,"1",9,"neutral","Avoid",NA,"no_press",1,"no_press"
"685","DIVL0216",3,2,3,4,1,2023,1000,363,0,"a.sham","3","press",1,"GAL","Go",1,45,"1",13,"neutral","Avoid",NA,"press",1,"press"
"686","DIVL0216",3,2,3,4,1,1254,742,390,-1,"a.sham","3","press",1,"GAL","Go",1,46,"1",14,"lose","Avoid","lose","press",0,NA
"687","DIVL0216",4,2,3,4,1,1809,835,0,1,"a.sham","3","no_press",0,"NGW","noGo",1,47,"1",9,"win","Win","win","no_press",1,"no_press"
"688","DIVL0216",1,2,3,4,1,1596,948,0,0,"a.sham","3","no_press",0,"NGL","noGo",1,48,"1",10,"neutral","Avoid",NA,"no_press",1,"no_press"
"689","DIVL0216",3,2,3,4,1,1752,524,497,0,"a.sham","3","press",1,"GAL","Go",1,49,"1",15,"neutral","Avoid",NA,"press",1,"press"
"690","DIVL0216",4,2,3,4,1,1469,659,0,0,"a.sham","3","no_press",0,"NGW","noGo",1,50,"1",10,"neutral","Win",NA,"no_press",0,NA
"691","DIVL0216",3,2,3,4,1,2200,960,426,0,"a.sham","3","press",1,"GAL","Go",1,51,"1",16,"neutral","Avoid",NA,"press",1,"press"
"692","DIVL0216",1,2,3,4,1,1155,530,0,-1,"a.sham","3","no_press",0,"NGL","noGo",1,52,"1",11,"lose","Avoid","lose","no_press",0,NA
"693","DIVL0216",1,2,3,4,1,2314,611,0,0,"a.sham","3","no_press",0,"NGL","noGo",1,53,"1",12,"neutral","Avoid",NA,"no_press",1,"no_press"
"694","DIVL0216",1,2,3,4,1,1803,612,0,-1,"a.sham","3","no_press",0,"NGL","noGo",1,54,"1",13,"lose","Avoid","lose","no_press",0,NA
"695","DIVL0216",2,2,3,4,1,2454,810,396,1,"a.sham","3","press",1,"GW","Go",1,55,"1",16,"win","Win","win","press",1,"press"
"696","DIVL0216",4,2,3,4,1,2225,582,0,1,"a.sham","3","no_press",0,"NGW","noGo",1,56,"1",11,"win","Win","win","no_press",1,"no_press"
"697","DIVL0216",1,2,3,4,1,1491,567,0,0,"a.sham","3","no_press",0,"NGL","noGo",1,57,"1",14,"neutral","Avoid",NA,"no_press",1,"no_press"
"698","DIVL0216",1,2,3,4,1,2428,892,0,0,"a.sham","3","no_press",0,"NGL","noGo",1,58,"1",15,"neutral","Avoid",NA,"no_press",1,"no_press"
"699","DIVL0216",1,2,3,4,1,1996,741,0,0,"a.sham","3","no_press",0,"NGL","noGo",1,59,"1",16,"neutral","Avoid",NA,"no_press",1,"no_press"
"700","DIVL0216",1,2,3,4,1,1000,753,0,0,"a.sham","3","no_press",0,"NGL","noGo",1,60,"1",17,"neutral","Avoid",NA,"no_press",1,"no_press"
"701","DIVL0216",4,2,3,4,1,3438,974,0,1,"a.sham","3","no_press",0,"NGW","noGo",1,61,"1",12,"win","Win","win","no_press",1,"no_press"
"702","DIVL0216",3,2,3,4,1,1765,772,575,0,"a.sham","3","press",1,"GAL","Go",1,62,"1",17,"neutral","Avoid",NA,"press",1,"press"
"703","DIVL0216",2,2,3,4,1,2224,508,425,1,"a.sham","3","press",1,"GW","Go",1,63,"1",17,"win","Win","win","press",1,"press"
"704","DIVL0216",4,2,3,4,1,2355,717,0,1,"a.sham","3","no_press",0,"NGW","noGo",1,64,"1",13,"win","Win","win","no_press",1,"no_press"
"705","DIVL0216",4,2,3,4,1,1486,750,0,0,"a.sham","3","no_press",0,"NGW","noGo",1,65,"1",14,"neutral","Win",NA,"no_press",0,NA
"706","DIVL0216",4,2,3,4,1,3256,838,0,1,"a.sham","3","no_press",0,"NGW","noGo",1,66,"1",15,"win","Win","win","no_press",1,"no_press"
"707","DIVL0216",1,2,3,4,1,1498,890,0,-1,"a.sham","3","no_press",0,"NGL","noGo",1,67,"1",18,"lose","Avoid","lose","no_press",0,NA
"708","DIVL0216",3,2,3,4,1,2502,705,544,0,"a.sham","3","press",1,"GAL","Go",1,68,"1",18,"neutral","Avoid",NA,"press",1,"press"
"709","DIVL0216",3,2,3,4,1,1468,937,493,0,"a.sham","3","press",1,"GAL","Go",1,69,"1",19,"neutral","Avoid",NA,"press",1,"press"
"710","DIVL0216",4,2,3,4,1,5000,973,0,1,"a.sham","3","no_press",0,"NGW","noGo",1,70,"1",16,"win","Win","win","no_press",1,"no_press"
"711","DIVL0216",4,2,3,4,1,2096,535,0,1,"a.sham","3","no_press",0,"NGW","noGo",1,71,"1",17,"win","Win","win","no_press",1,"no_press"
"712","DIVL0216",4,2,3,4,1,1773,507,0,0,"a.sham","3","no_press",0,"NGW","noGo",1,72,"1",18,"neutral","Win",NA,"no_press",0,NA
"713","DIVL0216",1,2,3,4,1,1681,712,0,0,"a.sham","3","no_press",0,"NGL","noGo",1,73,"1",19,"neutral","Avoid",NA,"no_press",1,"no_press"
"714","DIVL0216",4,2,3,4,1,1813,875,0,1,"a.sham","3","no_press",0,"NGW","noGo",1,74,"1",19,"win","Win","win","press",1,"press"
"715","DIVL0216",2,2,3,4,1,2547,635,445,0,"a.sham","3","press",1,"GW","Go",1,75,"1",18,"neutral","Win",NA,"press",0,NA
"716","DIVL0216",3,2,3,4,1,1827,699,477,0,"a.sham","3","press",1,"GAL","Go",1,76,"1",20,"neutral","Avoid",NA,"press",1,"press"
"717","DIVL0216",1,2,3,4,1,1000,930,0,0,"a.sham","3","no_press",0,"NGL","noGo",1,77,"1",20,"neutral","Avoid",NA,"no_press",1,"no_press"
"718","DIVL0216",2,2,3,4,1,1857,549,392,1,"a.sham","3","press",1,"GW","Go",1,78,"1",19,"win","Win","win","press",1,"press"
"719","DIVL0216",2,2,3,4,1,2632,605,450,1,"a.sham","3","press",1,"GW","Go",1,79,"1",20,"win","Win","win","press",1,"press"
"720","DIVL0216",4,2,3,4,1,3396,679,371,0,"a.sham","3","press",1,"NGW","noGo",0,80,"1",20,"neutral","Win",NA,"press",1,"press"
"721","DIVL0216",6,6,7,8,5,1699,889,640,1,"a.sham","3","press",1,"GW","Go",1,81,"2",1,"win","Win","win","press",1,"press"
"722","DIVL0216",6,6,7,8,5,1645,532,318,1,"a.sham","3","press",1,"GW","Go",1,82,"2",2,"win","Win","win","press",1,"press"
"723","DIVL0216",5,6,7,8,5,1402,601,0,0,"a.sham","3","no_press",0,"NGL","noGo",1,83,"2",1,"neutral","Avoid",NA,"no_press",1,"no_press"
"724","DIVL0216",6,6,7,8,5,2434,890,644,1,"a.sham","3","press",1,"GW","Go",1,84,"2",3,"win","Win","win","press",1,"press"
"725","DIVL0216",7,6,7,8,5,1491,960,509,-1,"a.sham","3","press",1,"GAL","Go",1,85,"2",1,"lose","Avoid","lose","no_press",0,NA
"726","DIVL0216",7,6,7,8,5,2188,654,0,-1,"a.sham","3","no_press",0,"GAL","Go",0,86,"2",2,"lose","Avoid","lose","press",1,"press"
"727","DIVL0216",6,6,7,8,5,2209,831,517,1,"a.sham","3","press",1,"GW","Go",1,87,"2",4,"win","Win","win","press",1,"press"
"728","DIVL0216",7,6,7,8,5,2712,723,537,0,"a.sham","3","press",1,"GAL","Go",1,88,"2",3,"neutral","Avoid",NA,"no_press",1,"no_press"
"729","DIVL0216",7,6,7,8,5,3823,727,0,-1,"a.sham","3","no_press",0,"GAL","Go",0,89,"2",4,"lose","Avoid","lose","press",1,"press"
"730","DIVL0216",8,6,7,8,5,2044,745,589,0,"a.sham","3","press",1,"NGW","noGo",0,90,"2",1,"neutral","Win",NA,"no_press",1,"no_press"
"731","DIVL0216",5,6,7,8,5,1657,803,0,0,"a.sham","3","no_press",0,"NGL","noGo",1,91,"2",2,"neutral","Avoid",NA,"no_press",1,"no_press"
"732","DIVL0216",7,6,7,8,5,1735,827,615,0,"a.sham","3","press",1,"GAL","Go",1,92,"2",5,"neutral","Avoid",NA,"press",1,"press"
"733","DIVL0216",7,6,7,8,5,1826,538,534,0,"a.sham","3","press",1,"GAL","Go",1,93,"2",6,"neutral","Avoid",NA,"press",1,"press"
"734","DIVL0216",5,6,7,8,5,1462,841,0,0,"a.sham","3","no_press",0,"NGL","noGo",1,94,"2",3,"neutral","Avoid",NA,"no_press",1,"no_press"
"735","DIVL0216",5,6,7,8,5,2480,966,0,0,"a.sham","3","no_press",0,"NGL","noGo",1,95,"2",4,"neutral","Avoid",NA,"no_press",1,"no_press"
"736","DIVL0216",8,6,7,8,5,2596,805,0,1,"a.sham","3","no_press",0,"NGW","noGo",1,96,"2",2,"win","Win","win","no_press",1,"no_press"
"737","DIVL0216",5,6,7,8,5,1838,635,0,0,"a.sham","3","no_press",0,"NGL","noGo",1,97,"2",5,"neutral","Avoid",NA,"press",1,"press"
"738","DIVL0216",6,6,7,8,5,2336,511,521,1,"a.sham","3","press",1,"GW","Go",1,98,"2",5,"win","Win","win","press",1,"press"
"739","DIVL0216",7,6,7,8,5,1000,941,420,0,"a.sham","3","press",1,"GAL","Go",1,99,"2",7,"neutral","Avoid",NA,"press",1,"press"
"740","DIVL0216",7,6,7,8,5,1652,894,434,0,"a.sham","3","press",1,"GAL","Go",1,100,"2",8,"neutral","Avoid",NA,"press",1,"press"
"741","DIVL0216",5,6,7,8,5,1439,535,402,0,"a.sham","3","press",1,"NGL","noGo",0,101,"2",6,"neutral","Avoid",NA,"no_press",0,NA
"742","DIVL0216",8,6,7,8,5,2000,526,0,1,"a.sham","3","no_press",0,"NGW","noGo",1,102,"2",3,"win","Win","win","no_press",1,"no_press"
"743","DIVL0216",8,6,7,8,5,1540,714,0,1,"a.sham","3","no_press",0,"NGW","noGo",1,103,"2",4,"win","Win","win","no_press",1,"no_press"
"744","DIVL0216",7,6,7,8,5,2512,864,541,0,"a.sham","3","press",1,"GAL","Go",1,104,"2",9,"neutral","Avoid",NA,"press",1,"press"
"745","DIVL0216",5,6,7,8,5,1732,546,0,0,"a.sham","3","no_press",0,"NGL","noGo",1,105,"2",7,"neutral","Avoid",NA,"no_press",1,"no_press"
"746","DIVL0216",8,6,7,8,5,1768,595,0,1,"a.sham","3","no_press",0,"NGW","noGo",1,106,"2",5,"win","Win","win","no_press",1,"no_press"
"747","DIVL0216",7,6,7,8,5,1744,991,490,0,"a.sham","3","press",1,"GAL","Go",1,107,"2",10,"neutral","Avoid",NA,"press",1,"press"
"748","DIVL0216",5,6,7,8,5,2103,686,0,0,"a.sham","3","no_press",0,"NGL","noGo",1,108,"2",8,"neutral","Avoid",NA,"no_press",1,"no_press"
"749","DIVL0216",6,6,7,8,5,1783,711,504,1,"a.sham","3","press",1,"GW","Go",1,109,"2",6,"win","Win","win","press",1,"press"
"750","DIVL0216",6,6,7,8,5,1574,546,475,0,"a.sham","3","press",1,"GW","Go",1,110,"2",7,"neutral","Win",NA,"press",0,NA
"751","DIVL0216",8,6,7,8,5,1446,561,0,1,"a.sham","3","no_press",0,"NGW","noGo",1,111,"2",6,"win","Win","win","no_press",1,"no_press"
"752","DIVL0216",7,6,7,8,5,1929,746,462,0,"a.sham","3","press",1,"GAL","Go",1,112,"2",11,"neutral","Avoid",NA,"press",1,"press"
"753","DIVL0216",6,6,7,8,5,1182,990,413,1,"a.sham","3","press",1,"GW","Go",1,113,"2",8,"win","Win","win","press",1,"press"
"754","DIVL0216",5,6,7,8,5,2628,763,0,0,"a.sham","3","no_press",0,"NGL","noGo",1,114,"2",9,"neutral","Avoid",NA,"no_press",1,"no_press"
"755","DIVL0216",6,6,7,8,5,2813,776,462,1,"a.sham","3","press",1,"GW","Go",1,115,"2",9,"win","Win","win","press",1,"press"
"756","DIVL0216",7,6,7,8,5,2137,834,457,-1,"a.sham","3","press",1,"GAL","Go",1,116,"2",12,"lose","Avoid","lose","press",0,NA
"757","DIVL0216",6,6,7,8,5,1741,852,405,1,"a.sham","3","press",1,"GW","Go",1,117,"2",10,"win","Win","win","press",1,"press"
