"","...1","ID","stim_ID","GW","GAL","NGW","NGL","jitter1","jitter2","RT","outcomefeed","condition","session","response","GoResponse","Cue","req_action","correct","trial_number","block","TrialCount","feedback","OutValence","salient","followup_beha","correct_feedback","followup_response","next_action","next_action_binary"
"1",2,"AAAA0432",4,4,1,2,3,2602,576,1186,1,"a.sham",3,"press",1,"GW","Go",1,2,1,1,"win","Win","win","press",1,"press",NA,NA
"2",5,"AAAA0432",4,4,1,2,3,2518,585,711,1,"a.sham",3,"press",1,"GW","Go",1,5,1,2,"win","Win","win","press",1,"press","press",1
"3",10,"AAAA0432",4,4,1,2,3,2480,753,628,1,"a.sham",3,"press",1,"GW","Go",1,10,1,3,"win","Win","win","press",1,"press","press",1
"4",13,"AAAA0432",4,4,1,2,3,2103,894,822,1,"a.sham",3,"press",1,"GW","Go",1,13,1,4,"win","Win","win","press",1,"press","press",1
"5",17,"AAAA0432",4,4,1,2,3,2015,938,682,1,"a.sham",3,"press",1,"GW","Go",1,17,1,5,"win","Win","win","press",1,"press","press",1
"6",23,"AAAA0432",4,4,1,2,3,1918,894,640,1,"a.sham",3,"press",1,"GW","Go",1,23,1,6,"win","Win","win","press",1,"press","press",1
"7",27,"AAAA0432",4,4,1,2,3,1996,648,521,1,"a.sham",3,"press",1,"GW","Go",1,27,1,7,"win","Win","win","press",1,"press","press",1
"8",31,"AAAA0432",4,4,1,2,3,1265,576,600,0,"a.sham",3,"press",1,"GW","Go",1,31,1,8,"neutral","Win",NA,"press",0,NA,"press",1
"9",37,"AAAA0432",4,4,1,2,3,1551,511,588,1,"a.sham",3,"press",1,"GW","Go",1,37,1,9,"win","Win","win","press",1,"press","press",1
"10",39,"AAAA0432",4,4,1,2,3,1823,626,570,0,"a.sham",3,"press",1,"GW","Go",1,39,1,10,"neutral","Win",NA,"press",0,NA,"press",1
"11",44,"AAAA0432",4,4,1,2,3,1486,839,531,1,"a.sham",3,"press",1,"GW","Go",1,44,1,11,"win","Win","win","press",1,"press","press",1
"12",45,"AAAA0432",4,4,1,2,3,1653,914,555,1,"a.sham",3,"press",1,"GW","Go",1,45,1,12,"win","Win","win","press",1,"press","press",1
"13",46,"AAAA0432",4,4,1,2,3,2115,773,722,1,"a.sham",3,"press",1,"GW","Go",1,46,1,13,"win","Win","win","press",1,"press","press",1
"14",47,"AAAA0432",4,4,1,2,3,1548,972,513,0,"a.sham",3,"press",1,"GW","Go",1,47,1,14,"neutral","Win",NA,"press",0,NA,"press",1
"15",48,"AAAA0432",4,4,1,2,3,2035,768,546,1,"a.sham",3,"press",1,"GW","Go",1,48,1,15,"win","Win","win","press",1,"press","press",1
"16",65,"AAAA0432",4,4,1,2,3,1761,799,521,1,"a.sham",3,"press",1,"GW","Go",1,65,1,16,"win","Win","win","press",1,"press","press",1
"17",71,"AAAA0432",4,4,1,2,3,2308,835,593,1,"a.sham",3,"press",1,"GW","Go",1,71,1,17,"win","Win","win","press",1,"press","press",1
"18",75,"AAAA0432",4,4,1,2,3,1852,964,517,1,"a.sham",3,"press",1,"GW","Go",1,75,1,18,"win","Win","win","press",1,"press","press",1
"19",77,"AAAA0432",4,4,1,2,3,1834,571,529,1,"a.sham",3,"press",1,"GW","Go",1,77,1,19,"win","Win","win","press",1,"press","press",1
"20",79,"AAAA0432",4,4,1,2,3,1658,761,504,0,"a.sham",3,"press",1,"GW","Go",1,79,1,20,"neutral","Win",NA,"press",0,NA,NA,NA
"21",81,"AAAA0432",6,6,7,8,5,2134,762,636,1,"a.sham",3,"press",1,"GW","Go",1,81,2,1,"win","Win","win","press",1,"press","press",1
"22",93,"AAAA0432",6,6,7,8,5,1838,900,650,1,"a.sham",3,"press",1,"GW","Go",1,93,2,2,"win","Win","win","press",1,"press","press",1
"23",94,"AAAA0432",6,6,7,8,5,2353,715,505,1,"a.sham",3,"press",1,"GW","Go",1,94,2,3,"win","Win","win","press",1,"press","press",1
"24",98,"AAAA0432",6,6,7,8,5,1867,957,462,0,"a.sham",3,"press",1,"GW","Go",1,98,2,4,"neutral","Win",NA,"press",0,NA,"press",1
"25",99,"AAAA0432",6,6,7,8,5,1000,872,519,1,"a.sham",3,"press",1,"GW","Go",1,99,2,5,"win","Win","win","press",1,"press","press",1
"26",100,"AAAA0432",6,6,7,8,5,1928,718,553,1,"a.sham",3,"press",1,"GW","Go",1,100,2,6,"win","Win","win","press",1,"press","press",1
"27",104,"AAAA0432",6,6,7,8,5,2184,613,719,1,"a.sham",3,"press",1,"GW","Go",1,104,2,7,"win","Win","win","press",1,"press","press",1
"28",105,"AAAA0432",6,6,7,8,5,3444,562,631,1,"a.sham",3,"press",1,"GW","Go",1,105,2,8,"win","Win","win","press",1,"press","press",1
"29",119,"AAAA0432",6,6,7,8,5,1929,747,441,1,"a.sham",3,"press",1,"GW","Go",1,119,2,9,"win","Win","win","press",1,"press","press",1
"30",121,"AAAA0432",6,6,7,8,5,1321,820,1053,1,"a.sham",3,"press",1,"GW","Go",1,121,2,10,"win","Win","win","press",1,"press","press",1
"31",124,"AAAA0432",6,6,7,8,5,2712,773,862,1,"a.sham",3,"press",1,"GW","Go",1,124,2,11,"win","Win","win","press",1,"press","press",1
"32",125,"AAAA0432",6,6,7,8,5,1774,933,411,1,"a.sham",3,"press",1,"GW","Go",1,125,2,12,"win","Win","win","press",1,"press","press",1
"33",127,"AAAA0432",6,6,7,8,5,2446,990,575,1,"a.sham",3,"press",1,"GW","Go",1,127,2,13,"win","Win","win","press",1,"press","press",1
"34",135,"AAAA0432",6,6,7,8,5,2103,518,403,1,"a.sham",3,"press",1,"GW","Go",1,135,2,14,"win","Win","win","press",1,"press","press",1
"35",139,"AAAA0432",6,6,7,8,5,3396,926,542,0,"a.sham",3,"press",1,"GW","Go",1,139,2,15,"neutral","Win",NA,"press",0,NA,"press",1
"36",140,"AAAA0432",6,6,7,8,5,1929,618,520,1,"a.sham",3,"press",1,"GW","Go",1,140,2,16,"win","Win","win","press",1,"press","press",1
"37",142,"AAAA0432",6,6,7,8,5,2394,817,583,1,"a.sham",3,"press",1,"GW","Go",1,142,2,17,"win","Win","win","press",1,"press","press",1
"38",152,"AAAA0432",6,6,7,8,5,2410,635,425,0,"a.sham",3,"press",1,"GW","Go",1,152,2,18,"neutral","Win",NA,"press",0,NA,"press",1
"39",157,"AAAA0432",6,6,7,8,5,1254,841,460,1,"a.sham",3,"press",1,"GW","Go",1,157,2,19,"win","Win","win","press",1,"press","press",1
"40",159,"AAAA0432",6,6,7,8,5,1935,888,520,0,"a.sham",3,"press",1,"GW","Go",1,159,2,20,"neutral","Win",NA,"press",0,NA,NA,NA
"41",162,"AAAA0432",10,10,11,12,9,1671,732,632,1,"a.sham",3,"press",1,"GW","Go",1,162,3,1,"win","Win","win","press",1,"press","press",1
"42",164,"AAAA0432",10,10,11,12,9,1821,876,1192,1,"a.sham",3,"press",1,"GW","Go",1,164,3,2,"win","Win","win","press",1,"press","press",1
"43",165,"AAAA0432",10,10,11,12,9,2135,571,604,0,"a.sham",3,"press",1,"GW","Go",1,165,3,3,"neutral","Win",NA,"press",0,NA,"press",1
"44",168,"AAAA0432",10,10,11,12,9,2411,519,614,1,"a.sham",3,"press",1,"GW","Go",1,168,3,4,"win","Win","win","press",1,"press","press",1
"45",169,"AAAA0432",10,10,11,12,9,1741,905,656,1,"a.sham",3,"press",1,"GW","Go",1,169,3,5,"win","Win","win","press",1,"press","press",1
"46",174,"AAAA0432",10,10,11,12,9,2082,743,617,1,"a.sham",3,"press",1,"GW","Go",1,174,3,6,"win","Win","win","press",1,"press","press",1
"47",177,"AAAA0432",10,10,11,12,9,1732,575,677,1,"a.sham",3,"press",1,"GW","Go",1,177,3,7,"win","Win","win","press",1,"press","press",1
"48",180,"AAAA0432",10,10,11,12,9,2687,649,597,1,"a.sham",3,"press",1,"GW","Go",1,180,3,8,"win","Win","win","press",1,"press","press",1
"49",181,"AAAA0432",10,10,11,12,9,2116,988,524,1,"a.sham",3,"press",1,"GW","Go",1,181,3,9,"win","Win","win","press",1,"press","press",1
"50",187,"AAAA0432",10,10,11,12,9,1904,884,562,0,"a.sham",3,"press",1,"GW","Go",1,187,3,10,"neutral","Win",NA,"press",0,NA,"press",1
"51",192,"AAAA0432",10,10,11,12,9,1773,510,657,0,"a.sham",3,"press",1,"GW","Go",1,192,3,11,"neutral","Win",NA,"press",0,NA,"press",1
"52",195,"AAAA0432",10,10,11,12,9,2044,790,537,1,"a.sham",3,"press",1,"GW","Go",1,195,3,12,"win","Win","win","press",1,"press","press",1
"53",200,"AAAA0432",10,10,11,12,9,1783,665,579,1,"a.sham",3,"press",1,"GW","Go",1,200,3,13,"win","Win","win","press",1,"press","press",1
"54",202,"AAAA0432",10,10,11,12,9,1965,809,599,0,"a.sham",3,"press",1,"GW","Go",1,202,3,14,"neutral","Win",NA,"press",0,NA,"press",1
"55",212,"AAAA0432",10,10,11,12,9,1160,788,532,1,"a.sham",3,"press",1,"GW","Go",1,212,3,15,"win","Win","win","press",1,"press","press",1
"56",213,"AAAA0432",10,10,11,12,9,1652,951,526,1,"a.sham",3,"press",1,"GW","Go",1,213,3,16,"win","Win","win","press",1,"press","press",1
"57",214,"AAAA0432",10,10,11,12,9,2434,533,428,1,"a.sham",3,"press",1,"GW","Go",1,214,3,17,"win","Win","win","press",1,"press","press",1
"58",216,"AAAA0432",10,10,11,12,9,1773,576,539,1,"a.sham",3,"press",1,"GW","Go",1,216,3,18,"win","Win","win","press",1,"press","press",1
"59",222,"AAAA0432",10,10,11,12,9,1803,940,365,1,"a.sham",3,"press",1,"GW","Go",1,222,3,19,"win","Win","win","press",1,"press","press",1
"60",234,"AAAA0432",10,10,11,12,9,1510,548,555,1,"a.sham",3,"press",1,"GW","Go",1,234,3,20,"win","Win","win","press",1,"press",NA,NA
"61",247,"AAAA0432",16,16,15,14,13,1995,896,966,1,"a.sham",3,"press",1,"GW","Go",1,247,4,1,"win","Win","win","press",1,"press","press",1
"62",248,"AAAA0432",16,16,15,14,13,1755,963,558,1,"a.sham",3,"press",1,"GW","Go",1,248,4,2,"win","Win","win","press",1,"press","press",1
"63",250,"AAAA0432",16,16,15,14,13,2512,959,580,1,"a.sham",3,"press",1,"GW","Go",1,250,4,3,"win","Win","win","press",1,"press","press",1
"64",253,"AAAA0432",16,16,15,14,13,2086,998,570,1,"a.sham",3,"press",1,"GW","Go",1,253,4,4,"win","Win","win","press",1,"press","press",1
"65",260,"AAAA0432",16,16,15,14,13,1925,934,594,1,"a.sham",3,"press",1,"GW","Go",1,260,4,5,"win","Win","win","press",1,"press","press",1
"66",262,"AAAA0432",16,16,15,14,13,2225,847,566,1,"a.sham",3,"press",1,"GW","Go",1,262,4,6,"win","Win","win","press",1,"press","press",1
"67",268,"AAAA0432",16,16,15,14,13,3045,628,443,0,"a.sham",3,"press",1,"GW","Go",1,268,4,7,"neutral","Win",NA,"press",0,NA,"press",1
"68",273,"AAAA0432",16,16,15,14,13,1699,846,562,1,"a.sham",3,"press",1,"GW","Go",1,273,4,8,"win","Win","win","press",1,"press","press",1
"69",274,"AAAA0432",16,16,15,14,13,2923,774,559,1,"a.sham",3,"press",1,"GW","Go",1,274,4,9,"win","Win","win","press",1,"press","press",1
"70",281,"AAAA0432",16,16,15,14,13,2369,506,464,1,"a.sham",3,"press",1,"GW","Go",1,281,4,10,"win","Win","win","press",1,"press","press",1
"71",282,"AAAA0432",16,16,15,14,13,1305,729,539,1,"a.sham",3,"press",1,"GW","Go",1,282,4,11,"win","Win","win","press",1,"press","press",1
"72",286,"AAAA0432",16,16,15,14,13,1563,675,527,0,"a.sham",3,"press",1,"GW","Go",1,286,4,12,"neutral","Win",NA,"press",0,NA,"press",1
"73",287,"AAAA0432",16,16,15,14,13,1498,729,475,1,"a.sham",3,"press",1,"GW","Go",1,287,4,13,"win","Win","win","press",1,"press","press",1
"74",289,"AAAA0432",16,16,15,14,13,2559,821,563,1,"a.sham",3,"press",1,"GW","Go",1,289,4,14,"win","Win","win","press",1,"press","press",1
"75",297,"AAAA0432",16,16,15,14,13,1477,513,392,1,"a.sham",3,"press",1,"GW","Go",1,297,4,15,"win","Win","win","press",1,"press","press",1
"76",302,"AAAA0432",16,16,15,14,13,2305,561,451,0,"a.sham",3,"press",1,"GW","Go",1,302,4,16,"neutral","Win",NA,"press",0,NA,"press",1
"77",308,"AAAA0432",16,16,15,14,13,1525,641,486,0,"a.sham",3,"press",1,"GW","Go",1,308,4,17,"neutral","Win",NA,"press",0,NA,"press",1
"78",310,"AAAA0432",16,16,15,14,13,2071,960,505,1,"a.sham",3,"press",1,"GW","Go",1,310,4,18,"win","Win","win","press",1,"press","press",1
"79",313,"AAAA0432",16,16,15,14,13,1629,671,516,1,"a.sham",3,"press",1,"GW","Go",1,313,4,19,"win","Win","win","press",1,"press","press",1
"80",317,"AAAA0432",16,16,15,14,13,1923,521,546,1,"a.sham",3,"press",1,"GW","Go",1,317,4,20,"win","Win","win",NA,1,NA,NA,NA
"81",321,"BNVN0020",4,4,1,2,3,3412,990,0,0,"a.sham",1,"no_press",0,"GW","Go",0,1,1,1,"neutral","Win",NA,"no_press",1,"no_press","no_press",0
"82",324,"BNVN0020",4,4,1,2,3,2253,891,0,0,"a.sham",1,"no_press",0,"GW","Go",0,4,1,2,"neutral","Win",NA,"press",1,"press","press",1
"83",339,"BNVN0020",4,4,1,2,3,2224,608,680,1,"a.sham",1,"press",1,"GW","Go",1,19,1,3,"win","Win","win","no_press",1,"no_press","no_press",0
"84",343,"BNVN0020",4,4,1,2,3,1249,755,0,0,"a.sham",1,"no_press",0,"GW","Go",0,23,1,4,"neutral","Win",NA,"no_press",1,"no_press","no_press",0
"85",345,"BNVN0020",4,4,1,2,3,1598,752,0,0,"a.sham",1,"no_press",0,"GW","Go",0,25,1,5,"neutral","Win",NA,"no_press",1,"no_press","no_press",0
"86",347,"BNVN0020",4,4,1,2,3,2066,743,0,0,"a.sham",1,"no_press",0,"GW","Go",0,27,1,6,"neutral","Win",NA,"no_press",1,"no_press","no_press",0
"87",352,"BNVN0020",4,4,1,2,3,1598,939,0,0,"a.sham",1,"no_press",0,"GW","Go",0,32,1,7,"neutral","Win",NA,"no_press",1,"no_press","no_press",0
"88",356,"BNVN0020",4,4,1,2,3,2386,868,0,0,"a.sham",1,"no_press",0,"GW","Go",0,36,1,8,"neutral","Win",NA,"press",1,"press","press",1
"89",357,"BNVN0020",4,4,1,2,3,2288,864,844,0,"a.sham",1,"press",1,"GW","Go",1,37,1,9,"neutral","Win",NA,"press",0,NA,"press",1
"90",364,"BNVN0020",4,4,1,2,3,2664,887,1052,1,"a.sham",1,"press",1,"GW","Go",1,44,1,10,"win","Win","win","press",1,"press","press",1
"91",375,"BNVN0020",4,4,1,2,3,1938,538,968,1,"a.sham",1,"press",1,"GW","Go",1,55,1,11,"win","Win","win","press",1,"press","press",1
"92",377,"BNVN0020",4,4,1,2,3,1954,549,1356,1,"a.sham",1,"press",1,"GW","Go",1,57,1,12,"win","Win","win","press",1,"press","press",1
"93",380,"BNVN0020",4,4,1,2,3,2132,951,895,0,"a.sham",1,"press",1,"GW","Go",1,60,1,13,"neutral","Win",NA,"press",0,NA,"press",1
"94",386,"BNVN0020",4,4,1,2,3,2701,870,783,0,"a.sham",1,"press",1,"GW","Go",1,66,1,14,"neutral","Win",NA,"press",0,NA,"press",1
"95",388,"BNVN0020",4,4,1,2,3,1729,610,724,1,"a.sham",1,"press",1,"GW","Go",1,68,1,15,"win","Win","win","press",1,"press","press",1
"96",390,"BNVN0020",4,4,1,2,3,2262,829,688,0,"a.sham",1,"press",1,"GW","Go",1,70,1,16,"neutral","Win",NA,"press",0,NA,"press",1
"97",393,"BNVN0020",4,4,1,2,3,1289,790,656,1,"a.sham",1,"press",1,"GW","Go",1,73,1,17,"win","Win","win","press",1,"press","press",1
"98",396,"BNVN0020",4,4,1,2,3,2121,936,581,1,"a.sham",1,"press",1,"GW","Go",1,76,1,18,"win","Win","win","press",1,"press","press",1
"99",397,"BNVN0020",4,4,1,2,3,1851,777,762,1,"a.sham",1,"press",1,"GW","Go",1,77,1,19,"win","Win","win","press",1,"press","press",1
"100",399,"BNVN0020",4,4,1,2,3,3385,823,837,1,"a.sham",1,"press",1,"GW","Go",1,79,1,20,"win","Win","win","press",1,"press",NA,NA
"101",401,"BNVN0020",6,6,7,8,5,1465,843,1397,1,"a.sham",1,"press",1,"GW","Go",1,81,2,1,"win","Win","win","press",1,"press","press",1
"102",408,"BNVN0020",6,6,7,8,5,1403,831,542,0,"a.sham",1,"press",1,"GW","Go",1,88,2,2,"neutral","Win",NA,"press",0,NA,"press",1
"103",413,"BNVN0020",6,6,7,8,5,2254,876,1351,1,"a.sham",1,"press",1,"GW","Go",1,93,2,3,"win","Win","win","press",1,"press","press",1
"104",414,"BNVN0020",6,6,7,8,5,2306,927,937,1,"a.sham",1,"press",1,"GW","Go",1,94,2,4,"win","Win","win","press",1,"press","press",1
"105",416,"BNVN0020",6,6,7,8,5,1927,736,465,1,"a.sham",1,"press",1,"GW","Go",1,96,2,5,"win","Win","win","press",1,"press","press",1
"106",423,"BNVN0020",6,6,7,8,5,1885,570,711,1,"a.sham",1,"press",1,"GW","Go",1,103,2,6,"win","Win","win","press",1,"press","press",1
"107",430,"BNVN0020",6,6,7,8,5,1736,631,690,1,"a.sham",1,"press",1,"GW","Go",1,110,2,7,"win","Win","win","press",1,"press","press",1
"108",440,"BNVN0020",6,6,7,8,5,2548,550,699,1,"a.sham",1,"press",1,"GW","Go",1,120,2,8,"win","Win","win","press",1,"press","press",1
"109",442,"BNVN0020",6,6,7,8,5,1932,777,639,0,"a.sham",1,"press",1,"GW","Go",1,122,2,9,"neutral","Win",NA,"press",0,NA,"press",1
"110",444,"BNVN0020",6,6,7,8,5,2745,720,629,1,"a.sham",1,"press",1,"GW","Go",1,124,2,10,"win","Win","win","press",1,"press","press",1
"111",452,"BNVN0020",6,6,7,8,5,1939,580,700,1,"a.sham",1,"press",1,"GW","Go",1,132,2,11,"win","Win","win","press",1,"press","press",1
"112",457,"BNVN0020",6,6,7,8,5,1547,952,539,1,"a.sham",1,"press",1,"GW","Go",1,137,2,12,"win","Win","win","press",1,"press","press",1
"113",464,"BNVN0020",6,6,7,8,5,2272,782,722,0,"a.sham",1,"press",1,"GW","Go",1,144,2,13,"neutral","Win",NA,"press",0,NA,"press",1
"114",466,"BNVN0020",6,6,7,8,5,1576,908,766,1,"a.sham",1,"press",1,"GW","Go",1,146,2,14,"win","Win","win","press",1,"press","press",1
"115",472,"BNVN0020",6,6,7,8,5,2088,606,804,1,"a.sham",1,"press",1,"GW","Go",1,152,2,15,"win","Win","win","press",1,"press","press",1
"116",473,"BNVN0020",6,6,7,8,5,2528,625,657,1,"a.sham",1,"press",1,"GW","Go",1,153,2,16,"win","Win","win","press",1,"press","press",1
"117",474,"BNVN0020",6,6,7,8,5,1990,770,700,1,"a.sham",1,"press",1,"GW","Go",1,154,2,17,"win","Win","win","press",1,"press","press",1
"118",475,"BNVN0020",6,6,7,8,5,1674,626,926,0,"a.sham",1,"press",1,"GW","Go",1,155,2,18,"neutral","Win",NA,"press",0,NA,"press",1
"119",476,"BNVN0020",6,6,7,8,5,3323,879,822,1,"a.sham",1,"press",1,"GW","Go",1,156,2,19,"win","Win","win","press",1,"press","press",1
"120",477,"BNVN0020",6,6,7,8,5,2380,574,533,1,"a.sham",1,"press",1,"GW","Go",1,157,2,20,"win","Win","win","press",1,"press",NA,NA
"121",481,"BNVN0020",10,10,11,12,9,1509,760,1052,1,"a.sham",1,"press",1,"GW","Go",1,161,3,1,"win","Win","win","press",1,"press","press",1
"122",488,"BNVN0020",10,10,11,12,9,2152,605,923,1,"a.sham",1,"press",1,"GW","Go",1,168,3,2,"win","Win","win","press",1,"press","press",1
"123",497,"BNVN0020",10,10,11,12,9,2538,982,1395,0,"a.sham",1,"press",1,"GW","Go",1,177,3,3,"neutral","Win",NA,"press",0,NA,"press",1
"124",504,"BNVN0020",10,10,11,12,9,1894,800,820,1,"a.sham",1,"press",1,"GW","Go",1,184,3,4,"win","Win","win","press",1,"press","press",1
"125",505,"BNVN0020",10,10,11,12,9,2571,730,907,1,"a.sham",1,"press",1,"GW","Go",1,185,3,5,"win","Win","win","press",1,"press","press",1
"126",506,"BNVN0020",10,10,11,12,9,2004,581,764,1,"a.sham",1,"press",1,"GW","Go",1,186,3,6,"win","Win","win","press",1,"press","press",1
"127",511,"BNVN0020",10,10,11,12,9,1620,572,676,1,"a.sham",1,"press",1,"GW","Go",1,191,3,7,"win","Win","win","press",1,"press","press",1
"128",514,"BNVN0020",10,10,11,12,9,1432,736,545,0,"a.sham",1,"press",1,"GW","Go",1,194,3,8,"neutral","Win",NA,"press",0,NA,"press",1
"129",515,"BNVN0020",10,10,11,12,9,2518,680,711,1,"a.sham",1,"press",1,"GW","Go",1,195,3,9,"win","Win","win","press",1,"press","press",1
"130",520,"BNVN0020",10,10,11,12,9,1987,908,451,0,"a.sham",1,"press",1,"GW","Go",1,200,3,10,"neutral","Win",NA,"press",0,NA,"press",1
"131",522,"BNVN0020",10,10,11,12,9,1688,664,679,1,"a.sham",1,"press",1,"GW","Go",1,202,3,11,"win","Win","win","press",1,"press","press",1
"132",523,"BNVN0020",10,10,11,12,9,2131,902,691,1,"a.sham",1,"press",1,"GW","Go",1,203,3,12,"win","Win","win","press",1,"press","press",1
"133",526,"BNVN0020",10,10,11,12,9,2185,780,777,1,"a.sham",1,"press",1,"GW","Go",1,206,3,13,"win","Win","win","press",1,"press","press",1
"134",527,"BNVN0020",10,10,11,12,9,2557,602,769,1,"a.sham",1,"press",1,"GW","Go",1,207,3,14,"win","Win","win","press",1,"press","press",1
"135",531,"BNVN0020",10,10,11,12,9,2029,514,696,1,"a.sham",1,"press",1,"GW","Go",1,211,3,15,"win","Win","win","no_press",1,"no_press","no_press",0
"136",533,"BNVN0020",10,10,11,12,9,2381,644,0,0,"a.sham",1,"no_press",0,"GW","Go",0,213,3,16,"neutral","Win",NA,"press",1,"press","press",1
"137",540,"BNVN0020",10,10,11,12,9,2547,957,985,1,"a.sham",1,"press",1,"GW","Go",1,220,3,17,"win","Win","win","press",1,"press","press",1
"138",543,"BNVN0020",10,10,11,12,9,1635,931,564,1,"a.sham",1,"press",1,"GW","Go",1,223,3,18,"win","Win","win","press",1,"press","press",1
"139",552,"BNVN0020",10,10,11,12,9,2482,767,735,0,"a.sham",1,"press",1,"GW","Go",1,232,3,19,"neutral","Win",NA,"press",0,NA,"press",1
"140",553,"BNVN0020",10,10,11,12,9,1344,965,579,1,"a.sham",1,"press",1,"GW","Go",1,233,3,20,"win","Win","win","press",1,"press",NA,NA
"141",561,"BNVN0020",16,16,13,14,15,2492,783,907,1,"a.sham",1,"press",1,"GW","Go",1,241,4,1,"win","Win","win","press",1,"press","press",1
"142",564,"BNVN0020",16,16,13,14,15,1346,710,619,1,"a.sham",1,"press",1,"GW","Go",1,244,4,2,"win","Win","win","press",1,"press","press",1
"143",568,"BNVN0020",16,16,13,14,15,1942,698,436,0,"a.sham",1,"press",1,"GW","Go",1,248,4,3,"neutral","Win",NA,"press",0,NA,"press",1
"144",578,"BNVN0020",16,16,13,14,15,1855,934,566,1,"a.sham",1,"press",1,"GW","Go",1,258,4,4,"win","Win","win","press",1,"press","press",1
"145",583,"BNVN0020",16,16,13,14,15,2381,643,663,1,"a.sham",1,"press",1,"GW","Go",1,263,4,5,"win","Win","win","press",1,"press","press",1
"146",586,"BNVN0020",16,16,13,14,15,2402,775,514,1,"a.sham",1,"press",1,"GW","Go",1,266,4,6,"win","Win","win","press",1,"press","press",1
"147",589,"BNVN0020",16,16,13,14,15,2228,968,638,1,"a.sham",1,"press",1,"GW","Go",1,269,4,7,"win","Win","win","press",1,"press","press",1
"148",595,"BNVN0020",16,16,13,14,15,2044,611,683,1,"a.sham",1,"press",1,"GW","Go",1,275,4,8,"win","Win","win","press",1,"press","press",1
"149",597,"BNVN0020",16,16,13,14,15,2446,855,701,1,"a.sham",1,"press",1,"GW","Go",1,277,4,9,"win","Win","win","press",1,"press","press",1
"150",599,"BNVN0020",16,16,13,14,15,1880,832,536,1,"a.sham",1,"press",1,"GW","Go",1,279,4,10,"win","Win","win","press",1,"press","press",1
"151",600,"BNVN0020",16,16,13,14,15,1798,501,633,0,"a.sham",1,"press",1,"GW","Go",1,280,4,11,"neutral","Win",NA,"press",0,NA,"press",1
"152",612,"BNVN0020",16,16,13,14,15,1543,525,586,1,"a.sham",1,"press",1,"GW","Go",1,292,4,12,"win","Win","win","press",1,"press","press",1
"153",613,"BNVN0020",16,16,13,14,15,2057,758,799,1,"a.sham",1,"press",1,"GW","Go",1,293,4,13,"win","Win","win","press",1,"press","press",1
"154",624,"BNVN0020",16,16,13,14,15,1479,865,583,0,"a.sham",1,"press",1,"GW","Go",1,304,4,14,"neutral","Win",NA,"press",0,NA,"press",1
"155",629,"BNVN0020",16,16,13,14,15,1666,773,646,1,"a.sham",1,"press",1,"GW","Go",1,309,4,15,"win","Win","win","press",1,"press","press",1
"156",632,"BNVN0020",16,16,13,14,15,1266,686,620,1,"a.sham",1,"press",1,"GW","Go",1,312,4,16,"win","Win","win","press",1,"press","press",1
"157",633,"BNVN0020",16,16,13,14,15,1848,826,656,1,"a.sham",1,"press",1,"GW","Go",1,313,4,17,"win","Win","win","press",1,"press","press",1
"158",635,"BNVN0020",16,16,13,14,15,2032,576,569,1,"a.sham",1,"press",1,"GW","Go",1,315,4,18,"win","Win","win","press",1,"press","press",1
"159",638,"BNVN0020",16,16,13,14,15,2367,900,549,0,"a.sham",1,"press",1,"GW","Go",1,318,4,19,"neutral","Win",NA,"press",0,NA,"press",1
"160",640,"BNVN0020",16,16,13,14,15,1965,875,626,1,"a.sham",1,"press",1,"GW","Go",1,320,4,20,"win","Win","win",NA,1,NA,NA,NA
"161",646,"DIVL0216",2,2,3,4,1,2158,985,505,1,"a.sham",3,"press",1,"GW","Go",1,6,1,1,"win","Win","win","press",1,"press","press",1
"162",649,"DIVL0216",2,2,3,4,1,2757,696,439,1,"a.sham",3,"press",1,"GW","Go",1,9,1,2,"win","Win","win","press",1,"press","press",1
"163",650,"DIVL0216",2,2,3,4,1,2082,605,535,1,"a.sham",3,"press",1,"GW","Go",1,10,1,3,"win","Win","win","press",1,"press","press",1
"164",651,"DIVL0216",2,2,3,4,1,1821,778,428,1,"a.sham",3,"press",1,"GW","Go",1,11,1,4,"win","Win","win","press",1,"press","press",1
"165",656,"DIVL0216",2,2,3,4,1,1000,582,402,1,"a.sham",3,"press",1,"GW","Go",1,16,1,5,"win","Win","win","press",1,"press","press",1
"166",658,"DIVL0216",2,2,3,4,1,3088,919,509,1,"a.sham",3,"press",1,"GW","Go",1,18,1,6,"win","Win","win","press",1,"press","press",1
"167",662,"DIVL0216",2,2,3,4,1,3465,574,456,1,"a.sham",3,"press",1,"GW","Go",1,22,1,7,"win","Win","win","press",1,"press","press",1
"168",664,"DIVL0216",2,2,3,4,1,1160,659,432,1,"a.sham",3,"press",1,"GW","Go",1,24,1,8,"win","Win","win","press",1,"press","press",1
"169",665,"DIVL0216",2,2,3,4,1,2606,999,394,0,"a.sham",3,"press",1,"GW","Go",1,25,1,9,"neutral","Win",NA,"press",0,NA,"press",1
"170",666,"DIVL0216",2,2,3,4,1,1000,802,449,1,"a.sham",3,"press",1,"GW","Go",1,26,1,10,"win","Win","win","press",1,"press","press",1
"171",672,"DIVL0216",2,2,3,4,1,2136,880,503,0,"a.sham",3,"press",1,"GW","Go",1,32,1,11,"neutral","Win",NA,"press",0,NA,"press",1
"172",673,"DIVL0216",2,2,3,4,1,1876,845,488,1,"a.sham",3,"press",1,"GW","Go",1,33,1,12,"win","Win","win","press",1,"press","press",1
"173",675,"DIVL0216",2,2,3,4,1,1211,630,404,1,"a.sham",3,"press",1,"GW","Go",1,35,1,13,"win","Win","win","press",1,"press","press",1
"174",677,"DIVL0216",2,2,3,4,1,1279,728,451,0,"a.sham",3,"press",1,"GW","Go",1,37,1,14,"neutral","Win",NA,"press",0,NA,"press",1
"175",683,"DIVL0216",2,2,3,4,1,1643,610,448,1,"a.sham",3,"press",1,"GW","Go",1,43,1,15,"win","Win","win","press",1,"press","press",1
"176",695,"DIVL0216",2,2,3,4,1,2454,810,396,1,"a.sham",3,"press",1,"GW","Go",1,55,1,16,"win","Win","win","press",1,"press","press",1
"177",703,"DIVL0216",2,2,3,4,1,2224,508,425,1,"a.sham",3,"press",1,"GW","Go",1,63,1,17,"win","Win","win","press",1,"press","press",1
"178",715,"DIVL0216",2,2,3,4,1,2547,635,445,0,"a.sham",3,"press",1,"GW","Go",1,75,1,18,"neutral","Win",NA,"press",0,NA,"press",1
"179",718,"DIVL0216",2,2,3,4,1,1857,549,392,1,"a.sham",3,"press",1,"GW","Go",1,78,1,19,"win","Win","win","press",1,"press","press",1
"180",719,"DIVL0216",2,2,3,4,1,2632,605,450,1,"a.sham",3,"press",1,"GW","Go",1,79,1,20,"win","Win","win","press",1,"press",NA,NA
"181",721,"DIVL0216",6,6,7,8,5,1699,889,640,1,"a.sham",3,"press",1,"GW","Go",1,81,2,1,"win","Win","win","press",1,"press","press",1
"182",722,"DIVL0216",6,6,7,8,5,1645,532,318,1,"a.sham",3,"press",1,"GW","Go",1,82,2,2,"win","Win","win","press",1,"press","press",1
"183",724,"DIVL0216",6,6,7,8,5,2434,890,644,1,"a.sham",3,"press",1,"GW","Go",1,84,2,3,"win","Win","win","press",1,"press","press",1
"184",727,"DIVL0216",6,6,7,8,5,2209,831,517,1,"a.sham",3,"press",1,"GW","Go",1,87,2,4,"win","Win","win","press",1,"press","press",1
"185",738,"DIVL0216",6,6,7,8,5,2336,511,521,1,"a.sham",3,"press",1,"GW","Go",1,98,2,5,"win","Win","win","press",1,"press","press",1
"186",749,"DIVL0216",6,6,7,8,5,1783,711,504,1,"a.sham",3,"press",1,"GW","Go",1,109,2,6,"win","Win","win","press",1,"press","press",1
"187",750,"DIVL0216",6,6,7,8,5,1574,546,475,0,"a.sham",3,"press",1,"GW","Go",1,110,2,7,"neutral","Win",NA,"press",0,NA,"press",1
"188",753,"DIVL0216",6,6,7,8,5,1182,990,413,1,"a.sham",3,"press",1,"GW","Go",1,113,2,8,"win","Win","win","press",1,"press","press",1
"189",755,"DIVL0216",6,6,7,8,5,2813,776,462,1,"a.sham",3,"press",1,"GW","Go",1,115,2,9,"win","Win","win","press",1,"press","press",1
"190",757,"DIVL0216",6,6,7,8,5,1741,852,405,1,"a.sham",3,"press",1,"GW","Go",1,117,2,10,"win","Win","win","press",1,"press","press",1
"191",766,"DIVL0216",6,6,7,8,5,1584,940,404,1,"a.sham",3,"press",1,"GW","Go",1,126,2,11,"win","Win","win","press",1,"press","press",1
"192",771,"DIVL0216",6,6,7,8,5,2200,794,476,1,"a.sham",3,"press",1,"GW","Go",1,131,2,12,"win","Win","win","press",1,"press","press",1
"193",777,"DIVL0216",6,6,7,8,5,1671,521,426,0,"a.sham",3,"press",1,"GW","Go",1,137,2,13,"neutral","Win",NA,"press",0,NA,"press",1
"194",781,"DIVL0216",6,6,7,8,5,3087,609,442,0,"a.sham",3,"press",1,"GW","Go",1,141,2,14,"neutral","Win",NA,"press",0,NA,"press",1
"195",782,"DIVL0216",6,6,7,8,5,2518,762,455,1,"a.sham",3,"press",1,"GW","Go",1,142,2,15,"win","Win","win","press",1,"press","press",1
"196",786,"DIVL0216",6,6,7,8,5,2090,768,383,0,"a.sham",3,"press",1,"GW","Go",1,146,2,16,"neutral","Win",NA,"press",0,NA,"press",1
"197",788,"DIVL0216",6,6,7,8,5,2031,970,380,1,"a.sham",3,"press",1,"GW","Go",1,148,2,17,"win","Win","win","press",1,"press","press",1
"198",790,"DIVL0216",6,6,7,8,5,2369,569,378,1,"a.sham",3,"press",1,"GW","Go",1,150,2,18,"win","Win","win","press",1,"press","press",1
"199",795,"DIVL0216",6,6,7,8,5,1773,870,417,1,"a.sham",3,"press",1,"GW","Go",1,155,2,19,"win","Win","win","press",1,"press","press",1
"200",797,"DIVL0216",6,6,7,8,5,1196,842,429,1,"a.sham",3,"press",1,"GW","Go",1,157,2,20,"win","Win","win","press",1,"press",NA,NA
"201",806,"DIVL0216",12,12,11,10,9,1727,598,566,1,"a.sham",3,"press",1,"GW","Go",1,166,3,1,"win","Win","win","press",1,"press","press",1
"202",815,"DIVL0216",12,12,11,10,9,2810,919,493,1,"a.sham",3,"press",1,"GW","Go",1,175,3,2,"win","Win","win","press",1,"press","press",1
"203",817,"DIVL0216",12,12,11,10,9,1918,653,538,0,"a.sham",3,"press",1,"GW","Go",1,177,3,3,"neutral","Win",NA,"press",0,NA,"press",1
"204",825,"DIVL0216",12,12,11,10,9,2083,706,437,1,"a.sham",3,"press",1,"GW","Go",1,185,3,4,"win","Win","win","press",1,"press","press",1
"205",828,"DIVL0216",12,12,11,10,9,2383,756,495,1,"a.sham",3,"press",1,"GW","Go",1,188,3,5,"win","Win","win","press",1,"press","press",1
"206",829,"DIVL0216",12,12,11,10,9,2687,927,439,1,"a.sham",3,"press",1,"GW","Go",1,189,3,6,"win","Win","win","press",1,"press","press",1
"207",836,"DIVL0216",12,12,11,10,9,1774,866,459,1,"a.sham",3,"press",1,"GW","Go",1,196,3,7,"win","Win","win","press",1,"press","press",1
"208",840,"DIVL0216",12,12,11,10,9,1659,735,385,1,"a.sham",3,"press",1,"GW","Go",1,200,3,8,"win","Win","win","press",1,"press","press",1
"209",843,"DIVL0216",12,12,11,10,9,2579,722,470,1,"a.sham",3,"press",1,"GW","Go",1,203,3,9,"win","Win","win","press",1,"press","press",1
"210",846,"DIVL0216",12,12,11,10,9,1638,587,395,0,"a.sham",3,"press",1,"GW","Go",1,206,3,10,"neutral","Win",NA,"press",0,NA,"press",1
"211",851,"DIVL0216",12,12,11,10,9,1564,786,408,1,"a.sham",3,"press",1,"GW","Go",1,211,3,11,"win","Win","win","press",1,"press","press",1
"212",855,"DIVL0216",12,12,11,10,9,2550,673,391,1,"a.sham",3,"press",1,"GW","Go",1,215,3,12,"win","Win","win","press",1,"press","press",1
"213",862,"DIVL0216",12,12,11,10,9,2199,881,440,1,"a.sham",3,"press",1,"GW","Go",1,222,3,13,"win","Win","win","press",1,"press","press",1
"214",863,"DIVL0216",12,12,11,10,9,2330,567,385,1,"a.sham",3,"press",1,"GW","Go",1,223,3,14,"win","Win","win","press",1,"press","press",1
"215",864,"DIVL0216",12,12,11,10,9,2208,988,345,0,"a.sham",3,"press",1,"GW","Go",1,224,3,15,"neutral","Win",NA,"press",0,NA,"press",1
"216",865,"DIVL0216",12,12,11,10,9,1433,895,363,1,"a.sham",3,"press",1,"GW","Go",1,225,3,16,"win","Win","win","press",1,"press","press",1
"217",867,"DIVL0216",12,12,11,10,9,1807,531,392,1,"a.sham",3,"press",1,"GW","Go",1,227,3,17,"win","Win","win","press",1,"press","press",1
"218",868,"DIVL0216",12,12,11,10,9,3457,922,394,0,"a.sham",3,"press",1,"GW","Go",1,228,3,18,"neutral","Win",NA,"press",0,NA,"press",1
"219",873,"DIVL0216",12,12,11,10,9,2071,799,428,1,"a.sham",3,"press",1,"GW","Go",1,233,3,19,"win","Win","win","press",1,"press","press",1
"220",874,"DIVL0216",12,12,11,10,9,1305,715,351,1,"a.sham",3,"press",1,"GW","Go",1,234,3,20,"win","Win","win","press",1,"press",NA,NA
"221",881,"DIVL0216",14,14,13,16,15,2415,519,756,1,"a.sham",3,"press",1,"GW","Go",1,241,4,1,"win","Win","win","press",1,"press","press",1
"222",883,"DIVL0216",14,14,13,16,15,2186,553,577,1,"a.sham",3,"press",1,"GW","Go",1,243,4,2,"win","Win","win","press",1,"press","press",1
"223",889,"DIVL0216",14,14,13,16,15,2525,637,428,1,"a.sham",3,"press",1,"GW","Go",1,249,4,3,"win","Win","win","press",1,"press","press",1
"224",900,"DIVL0216",14,14,13,16,15,2031,695,529,0,"a.sham",3,"press",1,"GW","Go",1,260,4,4,"neutral","Win",NA,"press",0,NA,"press",1
"225",902,"DIVL0216",14,14,13,16,15,1745,817,542,1,"a.sham",3,"press",1,"GW","Go",1,262,4,5,"win","Win","win","press",1,"press","press",1
"226",905,"DIVL0216",14,14,13,16,15,2038,512,449,1,"a.sham",3,"press",1,"GW","Go",1,265,4,6,"win","Win","win","press",1,"press","press",1
"227",906,"DIVL0216",14,14,13,16,15,1935,655,426,1,"a.sham",3,"press",1,"GW","Go",1,266,4,7,"win","Win","win","press",1,"press","press",1
"228",917,"DIVL0216",14,14,13,16,15,1448,545,476,1,"a.sham",3,"press",1,"GW","Go",1,277,4,8,"win","Win","win","press",1,"press","press",1
"229",918,"DIVL0216",14,14,13,16,15,2394,690,417,1,"a.sham",3,"press",1,"GW","Go",1,278,4,9,"win","Win","win","press",1,"press","press",1
"230",930,"DIVL0216",14,14,13,16,15,1949,914,430,0,"a.sham",3,"press",1,"GW","Go",1,290,4,10,"neutral","Win",NA,"press",0,NA,"press",1
"231",932,"DIVL0216",14,14,13,16,15,2722,806,392,0,"a.sham",3,"press",1,"GW","Go",1,292,4,11,"neutral","Win",NA,"press",0,NA,"press",1
"232",934,"DIVL0216",14,14,13,16,15,1817,904,387,1,"a.sham",3,"press",1,"GW","Go",1,294,4,12,"win","Win","win","press",1,"press","press",1
"233",939,"DIVL0216",14,14,13,16,15,2327,518,449,1,"a.sham",3,"press",1,"GW","Go",1,299,4,13,"win","Win","win","press",1,"press","press",1
"234",942,"DIVL0216",14,14,13,16,15,1000,561,464,1,"a.sham",3,"press",1,"GW","Go",1,302,4,14,"win","Win","win","press",1,"press","press",1
"235",947,"DIVL0216",14,14,13,16,15,2498,777,426,1,"a.sham",3,"press",1,"GW","Go",1,307,4,15,"win","Win","win","press",1,"press","press",1
"236",952,"DIVL0216",14,14,13,16,15,2205,830,489,1,"a.sham",3,"press",1,"GW","Go",1,312,4,16,"win","Win","win","press",1,"press","press",1
"237",953,"DIVL0216",14,14,13,16,15,1482,693,480,1,"a.sham",3,"press",1,"GW","Go",1,313,4,17,"win","Win","win","press",1,"press","press",1
"238",957,"DIVL0216",14,14,13,16,15,1202,606,530,0,"a.sham",3,"press",1,"GW","Go",1,317,4,18,"neutral","Win",NA,"press",0,NA,"press",1
"239",959,"DIVL0216",14,14,13,16,15,2411,650,450,1,"a.sham",3,"press",1,"GW","Go",1,319,4,19,"win","Win","win","press",1,"press","press",1
"240",960,"DIVL0216",14,14,13,16,15,2475,986,423,1,"a.sham",3,"press",1,"GW","Go",1,320,4,20,"win","Win","win",NA,1,NA,NA,NA
"241",961,"DNHR0900",4,4,3,2,1,1610,657,840,1,"a.sham",2,"press",1,"GW","Go",1,1,1,1,"win","Win","win","press",1,"press","press",1
"242",963,"DNHR0900",4,4,3,2,1,1660,590,622,1,"a.sham",2,"press",1,"GW","Go",1,3,1,2,"win","Win","win","press",1,"press","press",1
"243",965,"DNHR0900",4,4,3,2,1,2127,558,477,0,"a.sham",2,"press",1,"GW","Go",1,5,1,3,"neutral","Win",NA,"press",0,NA,"press",1
"244",968,"DNHR0900",4,4,3,2,1,1469,991,582,1,"a.sham",2,"press",1,"GW","Go",1,8,1,4,"win","Win","win","press",1,"press","press",1
"245",969,"DNHR0900",4,4,3,2,1,1706,939,649,0,"a.sham",2,"press",1,"GW","Go",1,9,1,5,"neutral","Win",NA,"press",0,NA,"press",1
"246",970,"DNHR0900",4,4,3,2,1,2306,829,494,1,"a.sham",2,"press",1,"GW","Go",1,10,1,6,"win","Win","win","press",1,"press","press",1
"247",973,"DNHR0900",4,4,3,2,1,1567,979,536,1,"a.sham",2,"press",1,"GW","Go",1,13,1,7,"win","Win","win","press",1,"press","press",1
"248",985,"DNHR0900",4,4,3,2,1,1575,963,576,1,"a.sham",2,"press",1,"GW","Go",1,25,1,8,"win","Win","win","press",1,"press","press",1
"249",987,"DNHR0900",4,4,3,2,1,1737,937,604,1,"a.sham",2,"press",1,"GW","Go",1,27,1,9,"win","Win","win","press",1,"press","press",1
"250",998,"DNHR0900",4,4,3,2,1,1759,730,596,0,"a.sham",2,"press",1,"GW","Go",1,38,1,10,"neutral","Win",NA,"press",0,NA,"press",1
"251",1001,"DNHR0900",4,4,3,2,1,1418,976,541,1,"a.sham",2,"press",1,"GW","Go",1,41,1,11,"win","Win","win","press",1,"press","press",1
"252",1003,"DNHR0900",4,4,3,2,1,1636,845,529,1,"a.sham",2,"press",1,"GW","Go",1,43,1,12,"win","Win","win","press",1,"press","press",1
"253",1006,"DNHR0900",4,4,3,2,1,1967,867,560,1,"a.sham",2,"press",1,"GW","Go",1,46,1,13,"win","Win","win","press",1,"press","press",1
"254",1011,"DNHR0900",4,4,3,2,1,1873,984,523,1,"a.sham",2,"press",1,"GW","Go",1,51,1,14,"win","Win","win","press",1,"press","press",1
"255",1015,"DNHR0900",4,4,3,2,1,1427,939,645,1,"a.sham",2,"press",1,"GW","Go",1,55,1,15,"win","Win","win","press",1,"press","press",1
"256",1021,"DNHR0900",4,4,3,2,1,1815,759,448,1,"a.sham",2,"press",1,"GW","Go",1,61,1,16,"win","Win","win","press",1,"press","press",1
"257",1024,"DNHR0900",4,4,3,2,1,2572,820,684,1,"a.sham",2,"press",1,"GW","Go",1,64,1,17,"win","Win","win","press",1,"press","press",1
"258",1026,"DNHR0900",4,4,3,2,1,1871,742,446,0,"a.sham",2,"press",1,"GW","Go",1,66,1,18,"neutral","Win",NA,"press",0,NA,"press",1
"259",1033,"DNHR0900",4,4,3,2,1,2293,665,560,1,"a.sham",2,"press",1,"GW","Go",1,73,1,19,"win","Win","win","press",1,"press","press",1
"260",1035,"DNHR0900",4,4,3,2,1,1531,647,581,1,"a.sham",2,"press",1,"GW","Go",1,75,1,20,"win","Win","win","press",1,"press",NA,NA
"261",1052,"DNHR0900",6,6,7,8,5,1400,759,698,1,"a.sham",2,"press",1,"GW","Go",1,92,2,1,"win","Win","win","press",1,"press","press",1
"262",1056,"DNHR0900",6,6,7,8,5,1000,723,643,1,"a.sham",2,"press",1,"GW","Go",1,96,2,2,"win","Win","win","press",1,"press","press",1
"263",1059,"DNHR0900",6,6,7,8,5,1469,663,592,1,"a.sham",2,"press",1,"GW","Go",1,99,2,3,"win","Win","win","press",1,"press","press",1
"264",1062,"DNHR0900",6,6,7,8,5,2251,501,552,1,"a.sham",2,"press",1,"GW","Go",1,102,2,4,"win","Win","win","press",1,"press","press",1
"265",1065,"DNHR0900",6,6,7,8,5,1861,942,721,0,"a.sham",2,"press",1,"GW","Go",1,105,2,5,"neutral","Win",NA,"press",0,NA,"press",1
"266",1071,"DNHR0900",6,6,7,8,5,2190,694,469,1,"a.sham",2,"press",1,"GW","Go",1,111,2,6,"win","Win","win","press",1,"press","press",1
"267",1073,"DNHR0900",6,6,7,8,5,1556,945,1054,1,"a.sham",2,"press",1,"GW","Go",1,113,2,7,"win","Win","win","press",1,"press","press",1
"268",1079,"DNHR0900",6,6,7,8,5,2649,658,553,1,"a.sham",2,"press",1,"GW","Go",1,119,2,8,"win","Win","win","press",1,"press","press",1
"269",1080,"DNHR0900",6,6,7,8,5,1758,875,570,1,"a.sham",2,"press",1,"GW","Go",1,120,2,9,"win","Win","win","press",1,"press","press",1
"270",1088,"DNHR0900",6,6,7,8,5,2374,553,460,0,"a.sham",2,"press",1,"GW","Go",1,128,2,10,"neutral","Win",NA,"press",0,NA,"press",1
"271",1095,"DNHR0900",6,6,7,8,5,2009,720,903,1,"a.sham",2,"press",1,"GW","Go",1,135,2,11,"win","Win","win","press",1,"press","press",1
"272",1096,"DNHR0900",6,6,7,8,5,2689,799,831,1,"a.sham",2,"press",1,"GW","Go",1,136,2,12,"win","Win","win","press",1,"press","press",1
"273",1098,"DNHR0900",6,6,7,8,5,2642,938,645,0,"a.sham",2,"press",1,"GW","Go",1,138,2,13,"neutral","Win",NA,"press",0,NA,"press",1
"274",1100,"DNHR0900",6,6,7,8,5,2076,762,597,1,"a.sham",2,"press",1,"GW","Go",1,140,2,14,"win","Win","win","press",1,"press","press",1
"275",1102,"DNHR0900",6,6,7,8,5,1474,625,596,1,"a.sham",2,"press",1,"GW","Go",1,142,2,15,"win","Win","win","press",1,"press","press",1
"276",1105,"DNHR0900",6,6,7,8,5,1979,976,605,1,"a.sham",2,"press",1,"GW","Go",1,145,2,16,"win","Win","win","press",1,"press","press",1
"277",1109,"DNHR0900",6,6,7,8,5,2525,734,530,1,"a.sham",2,"press",1,"GW","Go",1,149,2,17,"win","Win","win","press",1,"press","press",1
"278",1110,"DNHR0900",6,6,7,8,5,1779,577,533,1,"a.sham",2,"press",1,"GW","Go",1,150,2,18,"win","Win","win","press",1,"press","press",1
"279",1119,"DNHR0900",6,6,7,8,5,1834,837,544,1,"a.sham",2,"press",1,"GW","Go",1,159,2,19,"win","Win","win","press",1,"press","press",1
"280",1120,"DNHR0900",6,6,7,8,5,1000,910,652,0,"a.sham",2,"press",1,"GW","Go",1,160,2,20,"neutral","Win",NA,"press",0,NA,NA,NA
"281",1121,"DNHR0900",12,12,11,10,9,1823,836,653,1,"a.sham",2,"press",1,"GW","Go",1,161,3,1,"win","Win","win","press",1,"press","press",1
"282",1125,"DNHR0900",12,12,11,10,9,3075,542,631,1,"a.sham",2,"press",1,"GW","Go",1,165,3,2,"win","Win","win","press",1,"press","press",1
"283",1126,"DNHR0900",12,12,11,10,9,1838,845,1140,1,"a.sham",2,"press",1,"GW","Go",1,166,3,3,"win","Win","win","press",1,"press","press",1
"284",1129,"DNHR0900",12,12,11,10,9,1286,667,680,1,"a.sham",2,"press",1,"GW","Go",1,169,3,4,"win","Win","win","press",1,"press","press",1
"285",1138,"DNHR0900",12,12,11,10,9,3435,660,539,0,"a.sham",2,"press",1,"GW","Go",1,178,3,5,"neutral","Win",NA,"press",0,NA,"press",1
"286",1140,"DNHR0900",12,12,11,10,9,1497,835,859,1,"a.sham",2,"press",1,"GW","Go",1,180,3,6,"win","Win","win","press",1,"press","press",1
"287",1143,"DNHR0900",12,12,11,10,9,2071,732,488,1,"a.sham",2,"press",1,"GW","Go",1,183,3,7,"win","Win","win","press",1,"press","press",1
"288",1148,"DNHR0900",12,12,11,10,9,2180,587,681,1,"a.sham",2,"press",1,"GW","Go",1,188,3,8,"win","Win","win","press",1,"press","press",1
"289",1159,"DNHR0900",12,12,11,10,9,1723,812,611,0,"a.sham",2,"press",1,"GW","Go",1,199,3,9,"neutral","Win",NA,"press",0,NA,"press",1
"290",1160,"DNHR0900",12,12,11,10,9,1504,944,779,1,"a.sham",2,"press",1,"GW","Go",1,200,3,10,"win","Win","win","press",1,"press","press",1
"291",1167,"DNHR0900",12,12,11,10,9,2599,965,955,1,"a.sham",2,"press",1,"GW","Go",1,207,3,11,"win","Win","win","press",1,"press","press",1
"292",1168,"DNHR0900",12,12,11,10,9,2365,987,626,0,"a.sham",2,"press",1,"GW","Go",1,208,3,12,"neutral","Win",NA,"press",0,NA,"press",1
"293",1169,"DNHR0900",12,12,11,10,9,2413,980,652,1,"a.sham",2,"press",1,"GW","Go",1,209,3,13,"win","Win","win","press",1,"press","press",1
"294",1171,"DNHR0900",12,12,11,10,9,1247,865,649,1,"a.sham",2,"press",1,"GW","Go",1,211,3,14,"win","Win","win","press",1,"press","press",1
"295",1177,"DNHR0900",12,12,11,10,9,1813,929,868,1,"a.sham",2,"press",1,"GW","Go",1,217,3,15,"win","Win","win","press",1,"press","press",1
"296",1184,"DNHR0900",12,12,11,10,9,2057,656,818,1,"a.sham",2,"press",1,"GW","Go",1,224,3,16,"win","Win","win","press",1,"press","press",1
"297",1186,"DNHR0900",12,12,11,10,9,2521,668,587,0,"a.sham",2,"press",1,"GW","Go",1,226,3,17,"neutral","Win",NA,"press",0,NA,"press",1
"298",1189,"DNHR0900",12,12,11,10,9,1819,934,613,1,"a.sham",2,"press",1,"GW","Go",1,229,3,18,"win","Win","win","press",1,"press","press",1
"299",1190,"DNHR0900",12,12,11,10,9,1301,691,533,1,"a.sham",2,"press",1,"GW","Go",1,230,3,19,"win","Win","win","press",1,"press","press",1
"300",1191,"DNHR0900",12,12,11,10,9,1892,603,763,1,"a.sham",2,"press",1,"GW","Go",1,231,3,20,"win","Win","win","no_press",1,"no_press",NA,NA
"301",1208,"DNHR0900",16,16,15,14,13,2507,733,0,0,"a.sham",2,"no_press",0,"GW","Go",0,248,4,1,"neutral","Win",NA,"press",1,"press","press",1
"302",1214,"DNHR0900",16,16,15,14,13,2936,685,1221,0,"a.sham",2,"press",1,"GW","Go",1,254,4,2,"neutral","Win",NA,"press",0,NA,"press",1
"303",1219,"DNHR0900",16,16,15,14,13,2763,707,1442,1,"a.sham",2,"press",1,"GW","Go",1,259,4,3,"win","Win","win","press",1,"press","press",1
"304",1224,"DNHR0900",16,16,15,14,13,2203,663,587,1,"a.sham",2,"press",1,"GW","Go",1,264,4,4,"win","Win","win","press",1,"press","press",1
"305",1230,"DNHR0900",16,16,15,14,13,1207,640,782,1,"a.sham",2,"press",1,"GW","Go",1,270,4,5,"win","Win","win","press",1,"press","press",1
"306",1237,"DNHR0900",16,16,15,14,13,2581,983,763,1,"a.sham",2,"press",1,"GW","Go",1,277,4,6,"win","Win","win","press",1,"press","press",1
"307",1238,"DNHR0900",16,16,15,14,13,2059,550,697,1,"a.sham",2,"press",1,"GW","Go",1,278,4,7,"win","Win","win","press",1,"press","press",1
"308",1239,"DNHR0900",16,16,15,14,13,1668,822,718,1,"a.sham",2,"press",1,"GW","Go",1,279,4,8,"win","Win","win","press",1,"press","press",1
"309",1240,"DNHR0900",16,16,15,14,13,1480,564,539,1,"a.sham",2,"press",1,"GW","Go",1,280,4,9,"win","Win","win","press",1,"press","press",1
"310",1242,"DNHR0900",16,16,15,14,13,2934,833,672,1,"a.sham",2,"press",1,"GW","Go",1,282,4,10,"win","Win","win","press",1,"press","press",1
"311",1248,"DNHR0900",16,16,15,14,13,2927,715,404,1,"a.sham",2,"press",1,"GW","Go",1,288,4,11,"win","Win","win","press",1,"press","press",1
"312",1254,"DNHR0900",16,16,15,14,13,3179,709,384,0,"a.sham",2,"press",1,"GW","Go",1,294,4,12,"neutral","Win",NA,"press",0,NA,"press",1
"313",1255,"DNHR0900",16,16,15,14,13,2173,668,701,1,"a.sham",2,"press",1,"GW","Go",1,295,4,13,"win","Win","win","no_press",1,"no_press","no_press",0
"314",1256,"DNHR0900",16,16,15,14,13,3147,764,0,1,"a.sham",2,"no_press",0,"GW","Go",0,296,4,14,"win","Win","win","press",0,NA,"press",1
"315",1260,"DNHR0900",16,16,15,14,13,2485,635,653,1,"a.sham",2,"press",1,"GW","Go",1,300,4,15,"win","Win","win","press",1,"press","press",1
"316",1263,"DNHR0900",16,16,15,14,13,5000,854,567,1,"a.sham",2,"press",1,"GW","Go",1,303,4,16,"win","Win","win","press",1,"press","press",1
"317",1267,"DNHR0900",16,16,15,14,13,1422,770,744,1,"a.sham",2,"press",1,"GW","Go",1,307,4,17,"win","Win","win","press",1,"press","press",1
"318",1268,"DNHR0900",16,16,15,14,13,2256,690,578,1,"a.sham",2,"press",1,"GW","Go",1,308,4,18,"win","Win","win","press",1,"press","press",1
"319",1272,"DNHR0900",16,16,15,14,13,1833,710,855,0,"a.sham",2,"press",1,"GW","Go",1,312,4,19,"neutral","Win",NA,"press",0,NA,"press",1
"320",1278,"DNHR0900",16,16,15,14,13,1803,793,672,1,"a.sham",2,"press",1,"GW","Go",1,318,4,20,"win","Win","win",NA,1,NA,NA,NA
"321",1284,"EEMR0429",4,4,3,2,1,1743,914,0,0,"a.sham",2,"no_press",0,"GW","Go",0,4,1,1,"neutral","Win",NA,"no_press",1,"no_press","no_press",0
"322",1287,"EEMR0429",4,4,3,2,1,1246,880,0,0,"a.sham",2,"no_press",0,"GW","Go",0,7,1,2,"neutral","Win",NA,"no_press",1,"no_press","no_press",0
"323",1292,"EEMR0429",4,4,3,2,1,1861,788,0,1,"a.sham",2,"no_press",0,"GW","Go",0,12,1,3,"win","Win","win","no_press",0,NA,"no_press",0
"324",1295,"EEMR0429",4,4,3,2,1,1610,554,0,0,"a.sham",2,"no_press",0,"GW","Go",0,15,1,4,"neutral","Win",NA,"no_press",1,"no_press","no_press",0
"325",1300,"EEMR0429",4,4,3,2,1,2678,851,0,0,"a.sham",2,"no_press",0,"GW","Go",0,20,1,5,"neutral","Win",NA,"no_press",1,"no_press","no_press",0
"326",1302,"EEMR0429",4,4,3,2,1,1386,709,0,0,"a.sham",2,"no_press",0,"GW","Go",0,22,1,6,"neutral","Win",NA,"no_press",1,"no_press","no_press",0
"327",1310,"EEMR0429",4,4,3,2,1,3219,927,0,0,"a.sham",2,"no_press",0,"GW","Go",0,30,1,7,"neutral","Win",NA,"no_press",1,"no_press","no_press",0
"328",1311,"EEMR0429",4,4,3,2,1,2572,724,0,0,"a.sham",2,"no_press",0,"GW","Go",0,31,1,8,"neutral","Win",NA,"no_press",1,"no_press","no_press",0
"329",1314,"EEMR0429",4,4,3,2,1,1600,634,0,1,"a.sham",2,"no_press",0,"GW","Go",0,34,1,9,"win","Win","win","no_press",0,NA,"no_press",0
"330",1321,"EEMR0429",4,4,3,2,1,1638,854,0,1,"a.sham",2,"no_press",0,"GW","Go",0,41,1,10,"win","Win","win","no_press",0,NA,"no_press",0
"331",1334,"EEMR0429",4,4,3,2,1,2180,898,0,0,"a.sham",2,"no_press",0,"GW","Go",0,54,1,11,"neutral","Win",NA,"no_press",1,"no_press","no_press",0
"332",1337,"EEMR0429",4,4,3,2,1,1892,631,0,0,"a.sham",2,"no_press",0,"GW","Go",0,57,1,12,"neutral","Win",NA,"no_press",1,"no_press","no_press",0
"333",1338,"EEMR0429",4,4,3,2,1,2649,768,0,0,"a.sham",2,"no_press",0,"GW","Go",0,58,1,13,"neutral","Win",NA,"no_press",1,"no_press","no_press",0
"334",1346,"EEMR0429",4,4,3,2,1,3460,914,0,0,"a.sham",2,"no_press",0,"GW","Go",0,66,1,14,"neutral","Win",NA,"no_press",1,"no_press","no_press",0
"335",1350,"EEMR0429",4,4,3,2,1,1733,695,0,0,"a.sham",2,"no_press",0,"GW","Go",0,70,1,15,"neutral","Win",NA,"no_press",1,"no_press","no_press",0
"336",1351,"EEMR0429",4,4,3,2,1,1000,985,0,0,"a.sham",2,"no_press",0,"GW","Go",0,71,1,16,"neutral","Win",NA,"no_press",1,"no_press","no_press",0
"337",1352,"EEMR0429",4,4,3,2,1,1268,557,0,0,"a.sham",2,"no_press",0,"GW","Go",0,72,1,17,"neutral","Win",NA,"no_press",1,"no_press","no_press",0
"338",1353,"EEMR0429",4,4,3,2,1,1989,867,0,0,"a.sham",2,"no_press",0,"GW","Go",0,73,1,18,"neutral","Win",NA,"no_press",1,"no_press","no_press",0
"339",1355,"EEMR0429",4,4,3,2,1,2583,617,0,0,"a.sham",2,"no_press",0,"GW","Go",0,75,1,19,"neutral","Win",NA,"no_press",1,"no_press","no_press",0
"340",1357,"EEMR0429",4,4,3,2,1,2354,717,0,1,"a.sham",2,"no_press",0,"GW","Go",0,77,1,20,"win","Win","win","no_press",0,NA,NA,NA
"341",1365,"EEMR0429",8,8,5,6,7,1636,628,0,0,"a.sham",2,"no_press",0,"GW","Go",0,85,2,1,"neutral","Win",NA,"no_press",1,"no_press","no_press",0
"342",1373,"EEMR0429",8,8,5,6,7,1528,542,0,0,"a.sham",2,"no_press",0,"GW","Go",0,93,2,2,"neutral","Win",NA,"no_press",1,"no_press","no_press",0
"343",1377,"EEMR0429",8,8,5,6,7,1526,936,0,0,"a.sham",2,"no_press",0,"GW","Go",0,97,2,3,"neutral","Win",NA,"no_press",1,"no_press","no_press",0
"344",1380,"EEMR0429",8,8,5,6,7,2020,758,0,0,"a.sham",2,"no_press",0,"GW","Go",0,100,2,4,"neutral","Win",NA,"no_press",1,"no_press","no_press",0
"345",1387,"EEMR0429",8,8,5,6,7,2898,732,0,0,"a.sham",2,"no_press",0,"GW","Go",0,107,2,5,"neutral","Win",NA,"no_press",1,"no_press","no_press",0
"346",1389,"EEMR0429",8,8,5,6,7,2209,529,0,0,"a.sham",2,"no_press",0,"GW","Go",0,109,2,6,"neutral","Win",NA,"no_press",1,"no_press","no_press",0
"347",1391,"EEMR0429",8,8,5,6,7,1833,504,0,0,"a.sham",2,"no_press",0,"GW","Go",0,111,2,7,"neutral","Win",NA,"no_press",1,"no_press","no_press",0
"348",1393,"EEMR0429",8,8,5,6,7,2054,642,0,0,"a.sham",2,"no_press",0,"GW","Go",0,113,2,8,"neutral","Win",NA,"no_press",1,"no_press","no_press",0
"349",1399,"EEMR0429",8,8,5,6,7,1544,509,0,1,"a.sham",2,"no_press",0,"GW","Go",0,119,2,9,"win","Win","win","no_press",0,NA,"no_press",0
"350",1401,"EEMR0429",8,8,5,6,7,2293,921,0,0,"a.sham",2,"no_press",0,"GW","Go",0,121,2,10,"neutral","Win",NA,"no_press",1,"no_press","no_press",0
"351",1404,"EEMR0429",8,8,5,6,7,1342,772,0,0,"a.sham",2,"no_press",0,"GW","Go",0,124,2,11,"neutral","Win",NA,"no_press",1,"no_press","no_press",0
"352",1405,"EEMR0429",8,8,5,6,7,2173,601,0,0,"a.sham",2,"no_press",0,"GW","Go",0,125,2,12,"neutral","Win",NA,"no_press",1,"no_press","no_press",0
"353",1406,"EEMR0429",8,8,5,6,7,1922,855,0,1,"a.sham",2,"no_press",0,"GW","Go",0,126,2,13,"win","Win","win","no_press",0,NA,"no_press",0
"354",1407,"EEMR0429",8,8,5,6,7,1782,823,0,0,"a.sham",2,"no_press",0,"GW","Go",0,127,2,14,"neutral","Win",NA,"no_press",1,"no_press","no_press",0
"355",1415,"EEMR0429",8,8,5,6,7,1736,726,0,0,"a.sham",2,"no_press",0,"GW","Go",0,135,2,15,"neutral","Win",NA,"no_press",1,"no_press","no_press",0
"356",1416,"EEMR0429",8,8,5,6,7,1500,664,0,1,"a.sham",2,"no_press",0,"GW","Go",0,136,2,16,"win","Win","win","no_press",0,NA,"no_press",0
"357",1419,"EEMR0429",8,8,5,6,7,1669,944,0,0,"a.sham",2,"no_press",0,"GW","Go",0,139,2,17,"neutral","Win",NA,"no_press",1,"no_press","no_press",0
"358",1422,"EEMR0429",8,8,5,6,7,1615,898,0,0,"a.sham",2,"no_press",0,"GW","Go",0,142,2,18,"neutral","Win",NA,"no_press",1,"no_press","no_press",0
"359",1426,"EEMR0429",8,8,5,6,7,5000,790,0,0,"a.sham",2,"no_press",0,"GW","Go",0,146,2,19,"neutral","Win",NA,"no_press",1,"no_press","no_press",0
"360",1437,"EEMR0429",8,8,5,6,7,2107,663,0,1,"a.sham",2,"no_press",0,"GW","Go",0,157,2,20,"win","Win","win","no_press",0,NA,NA,NA
"361",1446,"EEMR0429",10,10,9,12,11,2581,679,0,0,"a.sham",2,"no_press",0,"GW","Go",0,166,3,1,"neutral","Win",NA,"no_press",1,"no_press","no_press",0
"362",1447,"EEMR0429",10,10,9,12,11,1461,734,0,0,"a.sham",2,"no_press",0,"GW","Go",0,167,3,2,"neutral","Win",NA,"no_press",1,"no_press","no_press",0
"363",1449,"EEMR0429",10,10,9,12,11,2640,983,0,1,"a.sham",2,"no_press",0,"GW","Go",0,169,3,3,"win","Win","win","no_press",0,NA,"no_press",0
"364",1455,"EEMR0429",10,10,9,12,11,2222,881,0,0,"a.sham",2,"no_press",0,"GW","Go",0,175,3,4,"neutral","Win",NA,"no_press",1,"no_press","no_press",0
"365",1463,"EEMR0429",10,10,9,12,11,1788,689,0,0,"a.sham",2,"no_press",0,"GW","Go",0,183,3,5,"neutral","Win",NA,"no_press",1,"no_press","no_press",0
"366",1473,"EEMR0429",10,10,9,12,11,2203,807,0,0,"a.sham",2,"no_press",0,"GW","Go",0,193,3,6,"neutral","Win",NA,"no_press",1,"no_press","no_press",0
"367",1477,"EEMR0429",10,10,9,12,11,2763,876,0,1,"a.sham",2,"no_press",0,"GW","Go",0,197,3,7,"win","Win","win","no_press",0,NA,"no_press",0
"368",1478,"EEMR0429",10,10,9,12,11,2253,588,0,0,"a.sham",2,"no_press",0,"GW","Go",0,198,3,8,"neutral","Win",NA,"no_press",1,"no_press","no_press",0
"369",1483,"EEMR0429",10,10,9,12,11,3243,828,0,0,"a.sham",2,"no_press",0,"GW","Go",0,203,3,9,"neutral","Win",NA,"no_press",1,"no_press","no_press",0
"370",1487,"EEMR0429",10,10,9,12,11,1953,586,0,0,"a.sham",2,"no_press",0,"GW","Go",0,207,3,10,"neutral","Win",NA,"no_press",1,"no_press","no_press",0
"371",1491,"EEMR0429",10,10,9,12,11,2078,561,0,0,"a.sham",2,"no_press",0,"GW","Go",0,211,3,11,"neutral","Win",NA,"no_press",1,"no_press","no_press",0
"372",1494,"EEMR0429",10,10,9,12,11,2709,954,0,1,"a.sham",2,"no_press",0,"GW","Go",0,214,3,12,"win","Win","win","no_press",0,NA,"no_press",0
"373",1495,"EEMR0429",10,10,9,12,11,2374,761,0,0,"a.sham",2,"no_press",0,"GW","Go",0,215,3,13,"neutral","Win",NA,"no_press",1,"no_press","no_press",0
"374",1496,"EEMR0429",10,10,9,12,11,2276,851,0,0,"a.sham",2,"no_press",0,"GW","Go",0,216,3,14,"neutral","Win",NA,"no_press",1,"no_press","no_press",0
"375",1497,"EEMR0429",10,10,9,12,11,2102,591,0,1,"a.sham",2,"no_press",0,"GW","Go",0,217,3,15,"win","Win","win","no_press",0,NA,"no_press",0
"376",1500,"EEMR0429",10,10,9,12,11,2306,897,0,0,"a.sham",2,"no_press",0,"GW","Go",0,220,3,16,"neutral","Win",NA,"no_press",1,"no_press","no_press",0
"377",1502,"EEMR0429",10,10,9,12,11,2048,597,0,0,"a.sham",2,"no_press",0,"GW","Go",0,222,3,17,"neutral","Win",NA,"no_press",1,"no_press","no_press",0
"378",1506,"EEMR0429",10,10,9,12,11,3179,643,0,0,"a.sham",2,"no_press",0,"GW","Go",0,226,3,18,"neutral","Win",NA,"no_press",1,"no_press","no_press",0
"379",1510,"EEMR0429",10,10,9,12,11,2829,628,0,0,"a.sham",2,"no_press",0,"GW","Go",0,230,3,19,"neutral","Win",NA,"no_press",1,"no_press","no_press",0
"380",1516,"EEMR0429",10,10,9,12,11,2485,548,0,0,"a.sham",2,"no_press",0,"GW","Go",0,236,3,20,"neutral","Win",NA,"no_press",1,"no_press",NA,NA
"381",1527,"EEMR0429",14,14,13,16,15,1247,597,0,0,"a.sham",2,"no_press",0,"GW","Go",0,247,4,1,"neutral","Win",NA,"no_press",1,"no_press","no_press",0
"382",1531,"EEMR0429",14,14,13,16,15,1659,982,0,0,"a.sham",2,"no_press",0,"GW","Go",0,251,4,2,"neutral","Win",NA,"no_press",1,"no_press","no_press",0
"383",1535,"EEMR0429",14,14,13,16,15,1470,760,0,0,"a.sham",2,"no_press",0,"GW","Go",0,255,4,3,"neutral","Win",NA,"no_press",1,"no_press","no_press",0
"384",1540,"EEMR0429",14,14,13,16,15,2398,669,0,1,"a.sham",2,"no_press",0,"GW","Go",0,260,4,4,"win","Win","win","no_press",0,NA,"no_press",0
"385",1543,"EEMR0429",14,14,13,16,15,2128,505,0,0,"a.sham",2,"no_press",0,"GW","Go",0,263,4,5,"neutral","Win",NA,"no_press",1,"no_press","no_press",0
"386",1548,"EEMR0429",14,14,13,16,15,2014,520,0,0,"a.sham",2,"no_press",0,"GW","Go",0,268,4,6,"neutral","Win",NA,"no_press",1,"no_press","no_press",0
"387",1549,"EEMR0429",14,14,13,16,15,1671,553,0,1,"a.sham",2,"no_press",0,"GW","Go",0,269,4,7,"win","Win","win","no_press",0,NA,"no_press",0
"388",1562,"EEMR0429",14,14,13,16,15,2053,684,0,0,"a.sham",2,"no_press",0,"GW","Go",0,282,4,8,"neutral","Win",NA,"no_press",1,"no_press","no_press",0
"389",1564,"EEMR0429",14,14,13,16,15,1749,548,0,0,"a.sham",2,"no_press",0,"GW","Go",0,284,4,9,"neutral","Win",NA,"no_press",1,"no_press","no_press",0
"390",1565,"EEMR0429",14,14,13,16,15,2511,586,0,0,"a.sham",2,"no_press",0,"GW","Go",0,285,4,10,"neutral","Win",NA,"no_press",1,"no_press","no_press",0
"391",1566,"EEMR0429",14,14,13,16,15,1565,570,0,1,"a.sham",2,"no_press",0,"GW","Go",0,286,4,11,"win","Win","win","no_press",0,NA,"no_press",0
"392",1575,"EEMR0429",14,14,13,16,15,2503,576,0,0,"a.sham",2,"no_press",0,"GW","Go",0,295,4,12,"neutral","Win",NA,"no_press",1,"no_press","no_press",0
"393",1577,"EEMR0429",14,14,13,16,15,1531,739,0,0,"a.sham",2,"no_press",0,"GW","Go",0,297,4,13,"neutral","Win",NA,"no_press",1,"no_press","no_press",0
"394",1579,"EEMR0429",14,14,13,16,15,1547,530,0,0,"a.sham",2,"no_press",0,"GW","Go",0,299,4,14,"neutral","Win",NA,"no_press",1,"no_press","no_press",0
"395",1580,"EEMR0429",14,14,13,16,15,2071,516,0,0,"a.sham",2,"no_press",0,"GW","Go",0,300,4,15,"neutral","Win",NA,"no_press",1,"no_press","no_press",0
"396",1588,"EEMR0429",14,14,13,16,15,2507,754,0,0,"a.sham",2,"no_press",0,"GW","Go",0,308,4,16,"neutral","Win",NA,"no_press",1,"no_press","no_press",0
"397",1592,"EEMR0429",14,14,13,16,15,1277,874,0,0,"a.sham",2,"no_press",0,"GW","Go",0,312,4,17,"neutral","Win",NA,"no_press",1,"no_press","no_press",0
"398",1594,"EEMR0429",14,14,13,16,15,2371,602,0,0,"a.sham",2,"no_press",0,"GW","Go",0,314,4,18,"neutral","Win",NA,"no_press",1,"no_press","no_press",0
"399",1598,"EEMR0429",14,14,13,16,15,1279,825,0,1,"a.sham",2,"no_press",0,"GW","Go",0,318,4,19,"win","Win","win","no_press",0,NA,"no_press",0
"400",1599,"EEMR0429",14,14,13,16,15,1844,683,0,0,"a.sham",2,"no_press",0,"GW","Go",0,319,4,20,"neutral","Win",NA,NA,1,NA,NA,NA
"401",1601,"FNMA0105",4,4,3,2,1,1462,859,869,1,"a.sham",1,"press",1,"GW","Go",1,1,1,1,"win","Win","win","press",1,"press","press",1
"402",1606,"FNMA0105",4,4,3,2,1,1666,759,773,1,"a.sham",1,"press",1,"GW","Go",1,6,1,2,"win","Win","win","press",1,"press","press",1
"403",1607,"FNMA0105",4,4,3,2,1,1779,909,629,0,"a.sham",1,"press",1,"GW","Go",1,7,1,3,"neutral","Win",NA,"press",0,NA,"press",1
"404",1608,"FNMA0105",4,4,3,2,1,1635,709,610,1,"a.sham",1,"press",1,"GW","Go",1,8,1,4,"win","Win","win","press",1,"press","press",1
"405",1619,"FNMA0105",4,4,3,2,1,1622,937,619,1,"a.sham",1,"press",1,"GW","Go",1,19,1,5,"win","Win","win","press",1,"press","press",1
"406",1620,"FNMA0105",4,4,3,2,1,1433,875,618,0,"a.sham",1,"press",1,"GW","Go",1,20,1,6,"neutral","Win",NA,"press",0,NA,"press",1
"407",1621,"FNMA0105",4,4,3,2,1,2251,991,420,1,"a.sham",1,"press",1,"GW","Go",1,21,1,7,"win","Win","win","press",1,"press","press",1
"408",1624,"FNMA0105",4,4,3,2,1,2164,558,668,0,"a.sham",1,"press",1,"GW","Go",1,24,1,8,"neutral","Win",NA,"press",0,NA,"press",1
"409",1628,"FNMA0105",4,4,3,2,1,2344,583,483,1,"a.sham",1,"press",1,"GW","Go",1,28,1,9,"win","Win","win","press",1,"press","press",1
"410",1636,"FNMA0105",4,4,3,2,1,1938,529,759,1,"a.sham",1,"press",1,"GW","Go",1,36,1,10,"win","Win","win","press",1,"press","press",1
"411",1638,"FNMA0105",4,4,3,2,1,2402,938,439,1,"a.sham",1,"press",1,"GW","Go",1,38,1,11,"win","Win","win","press",1,"press","press",1
"412",1646,"FNMA0105",4,4,3,2,1,2044,630,478,1,"a.sham",1,"press",1,"GW","Go",1,46,1,12,"win","Win","win","press",1,"press","press",1
"413",1648,"FNMA0105",4,4,3,2,1,1543,565,567,1,"a.sham",1,"press",1,"GW","Go",1,48,1,13,"win","Win","win","press",1,"press","press",1
"414",1652,"FNMA0105",4,4,3,2,1,1463,821,491,1,"a.sham",1,"press",1,"GW","Go",1,52,1,14,"win","Win","win","press",1,"press","press",1
"415",1656,"FNMA0105",4,4,3,2,1,2143,819,543,1,"a.sham",1,"press",1,"GW","Go",1,56,1,15,"win","Win","win","press",1,"press","press",1
"416",1666,"FNMA0105",4,4,3,2,1,2481,994,538,1,"a.sham",1,"press",1,"GW","Go",1,66,1,16,"win","Win","win","press",1,"press","press",1
"417",1667,"FNMA0105",4,4,3,2,1,1240,899,987,0,"a.sham",1,"press",1,"GW","Go",1,67,1,17,"neutral","Win",NA,"press",0,NA,"press",1
"418",1674,"FNMA0105",4,4,3,2,1,1715,839,542,1,"a.sham",1,"press",1,"GW","Go",1,74,1,18,"win","Win","win","press",1,"press","press",1
"419",1675,"FNMA0105",4,4,3,2,1,1937,851,573,1,"a.sham",1,"press",1,"GW","Go",1,75,1,19,"win","Win","win","press",1,"press","press",1
"420",1677,"FNMA0105",4,4,3,2,1,1468,887,617,1,"a.sham",1,"press",1,"GW","Go",1,77,1,20,"win","Win","win","press",1,"press",NA,NA
"421",1688,"FNMA0105",6,6,7,8,5,1678,608,557,1,"a.sham",1,"press",1,"GW","Go",1,88,2,1,"win","Win","win","press",1,"press","press",1
"422",1689,"FNMA0105",6,6,7,8,5,1246,923,485,0,"a.sham",1,"press",1,"GW","Go",1,89,2,2,"neutral","Win",NA,"press",0,NA,"press",1
"423",1693,"FNMA0105",6,6,7,8,5,2299,501,559,1,"a.sham",1,"press",1,"GW","Go",1,93,2,3,"win","Win","win","press",1,"press","press",1
"424",1694,"FNMA0105",6,6,7,8,5,1432,737,437,0,"a.sham",1,"press",1,"GW","Go",1,94,2,4,"neutral","Win",NA,"press",0,NA,"press",1
"425",1695,"FNMA0105",6,6,7,8,5,3323,690,531,1,"a.sham",1,"press",1,"GW","Go",1,95,2,5,"win","Win","win","press",1,"press","press",1
"426",1711,"FNMA0105",6,6,7,8,5,1206,880,640,1,"a.sham",1,"press",1,"GW","Go",1,111,2,6,"win","Win","win","press",1,"press","press",1
"427",1720,"FNMA0105",6,6,7,8,5,2206,601,651,1,"a.sham",1,"press",1,"GW","Go",1,120,2,7,"win","Win","win","press",1,"press","press",1
"428",1721,"FNMA0105",6,6,7,8,5,1634,658,454,1,"a.sham",1,"press",1,"GW","Go",1,121,2,8,"win","Win","win","press",1,"press","press",1
"429",1723,"FNMA0105",6,6,7,8,5,2029,776,439,1,"a.sham",1,"press",1,"GW","Go",1,123,2,9,"win","Win","win","press",1,"press","press",1
"430",1729,"FNMA0105",6,6,7,8,5,1338,643,513,1,"a.sham",1,"press",1,"GW","Go",1,129,2,10,"win","Win","win","press",1,"press","press",1
"431",1730,"FNMA0105",6,6,7,8,5,1598,556,730,1,"a.sham",1,"press",1,"GW","Go",1,130,2,11,"win","Win","win","press",1,"press","press",1
"432",1732,"FNMA0105",6,6,7,8,5,2930,949,529,1,"a.sham",1,"press",1,"GW","Go",1,132,2,12,"win","Win","win","press",1,"press","press",1
"433",1734,"FNMA0105",6,6,7,8,5,2446,726,493,0,"a.sham",1,"press",1,"GW","Go",1,134,2,13,"neutral","Win",NA,"press",0,NA,"press",1
"434",1735,"FNMA0105",6,6,7,8,5,1725,620,468,1,"a.sham",1,"press",1,"GW","Go",1,135,2,14,"win","Win","win","press",1,"press","press",1
"435",1744,"FNMA0105",6,6,7,8,5,1671,785,498,1,"a.sham",1,"press",1,"GW","Go",1,144,2,15,"win","Win","win","press",1,"press","press",1
"436",1745,"FNMA0105",6,6,7,8,5,2451,914,497,0,"a.sham",1,"press",1,"GW","Go",1,145,2,16,"neutral","Win",NA,"press",0,NA,"press",1
"437",1750,"FNMA0105",6,6,7,8,5,1825,718,520,1,"a.sham",1,"press",1,"GW","Go",1,150,2,17,"win","Win","win","press",1,"press","press",1
"438",1753,"FNMA0105",6,6,7,8,5,1921,930,505,1,"a.sham",1,"press",1,"GW","Go",1,153,2,18,"win","Win","win","press",1,"press","press",1
"439",1757,"FNMA0105",6,6,7,8,5,3626,833,434,1,"a.sham",1,"press",1,"GW","Go",1,157,2,19,"win","Win","win","press",1,"press","press",1
"440",1759,"FNMA0105",6,6,7,8,5,2171,668,590,1,"a.sham",1,"press",1,"GW","Go",1,159,2,20,"win","Win","win","press",1,"press",NA,NA
"441",1763,"FNMA0105",10,10,11,12,9,2036,728,617,1,"a.sham",1,"press",1,"GW","Go",1,163,3,1,"win","Win","win","press",1,"press","press",1
"442",1771,"FNMA0105",10,10,11,12,9,2547,676,745,1,"a.sham",1,"press",1,"GW","Go",1,171,3,2,"win","Win","win","press",1,"press","press",1
"443",1774,"FNMA0105",10,10,11,12,9,2381,780,1212,1,"a.sham",1,"press",1,"GW","Go",1,174,3,3,"win","Win","win","press",1,"press","press",1
"444",1790,"FNMA0105",10,10,11,12,9,1788,539,1039,0,"a.sham",1,"press",1,"GW","Go",1,190,3,4,"neutral","Win",NA,"press",0,NA,"press",1
"445",1795,"FNMA0105",10,10,11,12,9,2319,719,538,1,"a.sham",1,"press",1,"GW","Go",1,195,3,5,"win","Win","win","press",1,"press","press",1
"446",1799,"FNMA0105",10,10,11,12,9,2254,770,531,1,"a.sham",1,"press",1,"GW","Go",1,199,3,6,"win","Win","win","press",1,"press","press",1
"447",1800,"FNMA0105",10,10,11,12,9,2298,942,514,1,"a.sham",1,"press",1,"GW","Go",1,200,3,7,"win","Win","win","press",1,"press","press",1
"448",1802,"FNMA0105",10,10,11,12,9,1688,577,627,1,"a.sham",1,"press",1,"GW","Go",1,202,3,8,"win","Win","win","press",1,"press","press",1
"449",1803,"FNMA0105",10,10,11,12,9,2571,623,509,1,"a.sham",1,"press",1,"GW","Go",1,203,3,9,"win","Win","win","press",1,"press","press",1
"450",1804,"FNMA0105",10,10,11,12,9,2510,579,512,1,"a.sham",1,"press",1,"GW","Go",1,204,3,10,"win","Win","win","press",1,"press","press",1
"451",1811,"FNMA0105",10,10,11,12,9,2372,857,555,1,"a.sham",1,"press",1,"GW","Go",1,211,3,11,"win","Win","win","press",1,"press","press",1
"452",1812,"FNMA0105",10,10,11,12,9,1785,690,640,0,"a.sham",1,"press",1,"GW","Go",1,212,3,12,"neutral","Win",NA,"press",0,NA,"press",1
"453",1813,"FNMA0105",10,10,11,12,9,2907,650,379,1,"a.sham",1,"press",1,"GW","Go",1,213,3,13,"win","Win","win","press",1,"press","press",1
"454",1815,"FNMA0105",10,10,11,12,9,1407,562,536,1,"a.sham",1,"press",1,"GW","Go",1,215,3,14,"win","Win","win","press",1,"press","press",1
"455",1818,"FNMA0105",10,10,11,12,9,1552,993,516,0,"a.sham",1,"press",1,"GW","Go",1,218,3,15,"neutral","Win",NA,"press",0,NA,"press",1
"456",1831,"FNMA0105",10,10,11,12,9,1326,903,374,1,"a.sham",1,"press",1,"GW","Go",1,231,3,16,"win","Win","win","press",1,"press","press",1
"457",1837,"FNMA0105",10,10,11,12,9,2074,713,405,1,"a.sham",1,"press",1,"GW","Go",1,237,3,17,"win","Win","win","press",1,"press","press",1
"458",1838,"FNMA0105",10,10,11,12,9,1723,778,542,0,"a.sham",1,"press",1,"GW","Go",1,238,3,18,"neutral","Win",NA,"press",0,NA,"press",1
"459",1839,"FNMA0105",10,10,11,12,9,1951,568,513,1,"a.sham",1,"press",1,"GW","Go",1,239,3,19,"win","Win","win","press",1,"press","press",1
"460",1840,"FNMA0105",10,10,11,12,9,2357,789,442,1,"a.sham",1,"press",1,"GW","Go",1,240,3,20,"win","Win","win","press",1,"press",NA,NA
"461",1843,"FNMA0105",14,14,13,16,15,2099,721,504,1,"a.sham",1,"press",1,"GW","Go",1,243,4,1,"win","Win","win","press",1,"press","press",1
"462",1845,"FNMA0105",14,14,13,16,15,2503,825,583,1,"a.sham",1,"press",1,"GW","Go",1,245,4,2,"win","Win","win","press",1,"press","press",1
"463",1847,"FNMA0105",14,14,13,16,15,2692,544,802,1,"a.sham",1,"press",1,"GW","Go",1,247,4,3,"win","Win","win","press",1,"press","press",1
"464",1849,"FNMA0105",14,14,13,16,15,2315,928,434,1,"a.sham",1,"press",1,"GW","Go",1,249,4,4,"win","Win","win","press",1,"press","press",1
"465",1857,"FNMA0105",14,14,13,16,15,1861,958,622,0,"a.sham",1,"press",1,"GW","Go",1,257,4,5,"neutral","Win",NA,"press",0,NA,"press",1
"466",1860,"FNMA0105",14,14,13,16,15,2080,508,508,0,"a.sham",1,"press",1,"GW","Go",1,260,4,6,"neutral","Win",NA,"press",0,NA,"press",1
"467",1864,"FNMA0105",14,14,13,16,15,2306,648,538,1,"a.sham",1,"press",1,"GW","Go",1,264,4,7,"win","Win","win","press",1,"press","press",1
"468",1865,"FNMA0105",14,14,13,16,15,1889,532,553,1,"a.sham",1,"press",1,"GW","Go",1,265,4,8,"win","Win","win","press",1,"press","press",1
"469",1870,"FNMA0105",14,14,13,16,15,1576,541,838,1,"a.sham",1,"press",1,"GW","Go",1,270,4,9,"win","Win","win","press",1,"press","press",1
"470",1875,"FNMA0105",14,14,13,16,15,2785,724,572,1,"a.sham",1,"press",1,"GW","Go",1,275,4,10,"win","Win","win","press",1,"press","press",1
"471",1882,"FNMA0105",14,14,13,16,15,2139,638,589,0,"a.sham",1,"press",1,"GW","Go",1,282,4,11,"neutral","Win",NA,"press",0,NA,"press",1
"472",1886,"FNMA0105",14,14,13,16,15,2942,903,574,1,"a.sham",1,"press",1,"GW","Go",1,286,4,12,"win","Win","win","press",1,"press","press",1
"473",1888,"FNMA0105",14,14,13,16,15,1888,616,642,1,"a.sham",1,"press",1,"GW","Go",1,288,4,13,"win","Win","win","press",1,"press","press",1
"474",1890,"FNMA0105",14,14,13,16,15,2008,694,632,1,"a.sham",1,"press",1,"GW","Go",1,290,4,14,"win","Win","win","press",1,"press","press",1
"475",1892,"FNMA0105",14,14,13,16,15,5000,913,565,1,"a.sham",1,"press",1,"GW","Go",1,292,4,15,"win","Win","win","press",1,"press","press",1
"476",1899,"FNMA0105",14,14,13,16,15,3876,860,519,1,"a.sham",1,"press",1,"GW","Go",1,299,4,16,"win","Win","win","press",1,"press","press",1
"477",1910,"FNMA0105",14,14,13,16,15,1474,959,555,1,"a.sham",1,"press",1,"GW","Go",1,310,4,17,"win","Win","win","press",1,"press","press",1
"478",1915,"FNMA0105",14,14,13,16,15,1403,801,504,1,"a.sham",1,"press",1,"GW","Go",1,315,4,18,"win","Win","win","press",1,"press","press",1
"479",1916,"FNMA0105",14,14,13,16,15,2719,969,424,1,"a.sham",1,"press",1,"GW","Go",1,316,4,19,"win","Win","win","press",1,"press","press",1
"480",1919,"FNMA0105",14,14,13,16,15,1615,624,500,0,"a.sham",1,"press",1,"GW","Go",1,319,4,20,"neutral","Win",NA,NA,0,NA,NA,NA
"481",1936,"GAEL0180",2,2,3,4,1,1595,797,548,1,"a.sham",2,"press",1,"GW","Go",1,16,1,1,"win","Win","win","press",1,"press","press",1
"482",1937,"GAEL0180",2,2,3,4,1,1207,941,653,1,"a.sham",2,"press",1,"GW","Go",1,17,1,2,"win","Win","win","press",1,"press","press",1
"483",1938,"GAEL0180",2,2,3,4,1,2102,931,440,0,"a.sham",2,"press",1,"GW","Go",1,18,1,3,"neutral","Win",NA,"press",0,NA,"press",1
"484",1945,"GAEL0180",2,2,3,4,1,1811,999,366,0,"a.sham",2,"press",1,"GW","Go",1,25,1,4,"neutral","Win",NA,"press",0,NA,"press",1
"485",1956,"GAEL0180",2,2,3,4,1,2229,774,484,1,"a.sham",2,"press",1,"GW","Go",1,36,1,5,"win","Win","win","press",1,"press","press",1
"486",1960,"GAEL0180",2,2,3,4,1,2009,529,553,1,"a.sham",2,"press",1,"GW","Go",1,40,1,6,"win","Win","win","press",1,"press","press",1
"487",1963,"GAEL0180",2,2,3,4,1,1418,846,482,1,"a.sham",2,"press",1,"GW","Go",1,43,1,7,"win","Win","win","press",1,"press","press",1
"488",1964,"GAEL0180",2,2,3,4,1,2332,960,524,0,"a.sham",2,"press",1,"GW","Go",1,44,1,8,"neutral","Win",NA,"press",0,NA,"press",1
"489",1966,"GAEL0180",2,2,3,4,1,1000,700,459,1,"a.sham",2,"press",1,"GW","Go",1,46,1,9,"win","Win","win","press",1,"press","press",1
"490",1968,"GAEL0180",2,2,3,4,1,1386,925,497,1,"a.sham",2,"press",1,"GW","Go",1,48,1,10,"win","Win","win","press",1,"press","press",1
"491",1969,"GAEL0180",2,2,3,4,1,1368,751,501,1,"a.sham",2,"press",1,"GW","Go",1,49,1,11,"win","Win","win","press",1,"press","press",1
"492",1970,"GAEL0180",2,2,3,4,1,2442,889,436,0,"a.sham",2,"press",1,"GW","Go",1,50,1,12,"neutral","Win",NA,"press",0,NA,"press",1
"493",1972,"GAEL0180",2,2,3,4,1,2564,696,500,1,"a.sham",2,"press",1,"GW","Go",1,52,1,13,"win","Win","win","press",1,"press","press",1
"494",1974,"GAEL0180",2,2,3,4,1,1979,979,572,1,"a.sham",2,"press",1,"GW","Go",1,54,1,14,"win","Win","win","press",1,"press","press",1
"495",1975,"GAEL0180",2,2,3,4,1,1592,662,603,1,"a.sham",2,"press",1,"GW","Go",1,55,1,15,"win","Win","win","press",1,"press","press",1
"496",1979,"GAEL0180",2,2,3,4,1,2822,675,488,1,"a.sham",2,"press",1,"GW","Go",1,59,1,16,"win","Win","win","press",1,"press","press",1
"497",1984,"GAEL0180",2,2,3,4,1,1844,626,498,1,"a.sham",2,"press",1,"GW","Go",1,64,1,17,"win","Win","win","press",1,"press","press",1
"498",1992,"GAEL0180",2,2,3,4,1,2040,567,490,1,"a.sham",2,"press",1,"GW","Go",1,72,1,18,"win","Win","win","press",1,"press","press",1
"499",1995,"GAEL0180",2,2,3,4,1,1575,657,491,1,"a.sham",2,"press",1,"GW","Go",1,75,1,19,"win","Win","win","press",1,"press","press",1
"500",1999,"GAEL0180",2,2,3,4,1,1873,934,465,1,"a.sham",2,"press",1,"GW","Go",1,79,1,20,"win","Win","win","press",1,"press",NA,NA
"501",2001,"GAEL0180",6,6,7,8,5,1984,504,629,1,"a.sham",2,"press",1,"GW","Go",1,81,2,1,"win","Win","win","press",1,"press","press",1
"502",2007,"GAEL0180",6,6,7,8,5,1528,922,708,0,"a.sham",2,"press",1,"GW","Go",1,87,2,2,"neutral","Win",NA,"press",0,NA,"press",1
"503",2009,"GAEL0180",6,6,7,8,5,1851,825,552,0,"a.sham",2,"press",1,"GW","Go",1,89,2,3,"neutral","Win",NA,"press",0,NA,"press",1
"504",2015,"GAEL0180",6,6,7,8,5,1757,686,578,1,"a.sham",2,"press",1,"GW","Go",1,95,2,4,"win","Win","win","press",1,"press","press",1
"505",2017,"GAEL0180",6,6,7,8,5,3147,551,676,1,"a.sham",2,"press",1,"GW","Go",1,97,2,5,"win","Win","win","press",1,"press","press",1
"506",2020,"GAEL0180",6,6,7,8,5,2209,743,486,1,"a.sham",2,"press",1,"GW","Go",1,100,2,6,"win","Win","win","press",1,"press","press",1
"507",2027,"GAEL0180",6,6,7,8,5,1892,697,584,1,"a.sham",2,"press",1,"GW","Go",1,107,2,7,"win","Win","win","press",1,"press","press",1
"508",2031,"GAEL0180",6,6,7,8,5,1819,639,357,0,"a.sham",2,"press",1,"GW","Go",1,111,2,8,"neutral","Win",NA,"press",0,NA,"press",1
"509",2032,"GAEL0180",6,6,7,8,5,1671,840,562,1,"a.sham",2,"press",1,"GW","Go",1,112,2,9,"win","Win","win","press",1,"press","press",1
"510",2036,"GAEL0180",6,6,7,8,5,1461,632,609,1,"a.sham",2,"press",1,"GW","Go",1,116,2,10,"win","Win","win","press",1,"press","press",1
"511",2043,"GAEL0180",6,6,7,8,5,1576,527,510,1,"a.sham",2,"press",1,"GW","Go",1,123,2,11,"win","Win","win","press",1,"press","press",1
"512",2044,"GAEL0180",6,6,7,8,5,1794,715,469,1,"a.sham",2,"press",1,"GW","Go",1,124,2,12,"win","Win","win","press",1,"press","press",1
"513",2045,"GAEL0180",6,6,7,8,5,2086,981,515,1,"a.sham",2,"press",1,"GW","Go",1,125,2,13,"win","Win","win","press",1,"press","press",1
"514",2046,"GAEL0180",6,6,7,8,5,2413,808,614,1,"a.sham",2,"press",1,"GW","Go",1,126,2,14,"win","Win","win","press",1,"press","press",1
"515",2048,"GAEL0180",6,6,7,8,5,1874,880,493,1,"a.sham",2,"press",1,"GW","Go",1,128,2,15,"win","Win","win","press",1,"press","press",1
"516",2049,"GAEL0180",6,6,7,8,5,1615,663,384,1,"a.sham",2,"press",1,"GW","Go",1,129,2,16,"win","Win","win","press",1,"press","press",1
"517",2053,"GAEL0180",6,6,7,8,5,1544,561,578,1,"a.sham",2,"press",1,"GW","Go",1,133,2,17,"win","Win","win","press",1,"press","press",1
"518",2055,"GAEL0180",6,6,7,8,5,2521,505,552,0,"a.sham",2,"press",1,"GW","Go",1,135,2,18,"neutral","Win",NA,"press",0,NA,"press",1
"519",2068,"GAEL0180",6,6,7,8,5,2065,800,458,1,"a.sham",2,"press",1,"GW","Go",1,148,2,19,"win","Win","win","press",1,"press","press",1
"520",2075,"GAEL0180",6,6,7,8,5,1953,915,536,1,"a.sham",2,"press",1,"GW","Go",1,155,2,20,"win","Win","win","press",1,"press",NA,NA
"521",2081,"GAEL0180",10,10,9,12,11,3107,820,407,1,"a.sham",2,"press",1,"GW","Go",1,161,3,1,"win","Win","win","press",1,"press","press",1
"522",2085,"GAEL0180",10,10,9,12,11,1439,700,706,1,"a.sham",2,"press",1,"GW","Go",1,165,3,2,"win","Win","win","press",1,"press","press",1
"523",2088,"GAEL0180",10,10,9,12,11,1504,993,463,1,"a.sham",2,"press",1,"GW","Go",1,168,3,3,"win","Win","win","press",1,"press","press",1
"524",2089,"GAEL0180",10,10,9,12,11,2355,576,711,0,"a.sham",2,"press",1,"GW","Go",1,169,3,4,"neutral","Win",NA,"press",0,NA,"press",1
"525",2096,"GAEL0180",10,10,9,12,11,1985,810,520,1,"a.sham",2,"press",1,"GW","Go",1,176,3,5,"win","Win","win","press",1,"press","press",1
"526",2097,"GAEL0180",10,10,9,12,11,1823,668,519,1,"a.sham",2,"press",1,"GW","Go",1,177,3,6,"win","Win","win","press",1,"press","press",1
"527",2099,"GAEL0180",10,10,9,12,11,1813,736,399,0,"a.sham",2,"press",1,"GW","Go",1,179,3,7,"neutral","Win",NA,"press",0,NA,"press",1
"528",2103,"GAEL0180",10,10,9,12,11,3179,696,564,1,"a.sham",2,"press",1,"GW","Go",1,183,3,8,"win","Win","win","press",1,"press","press",1
"529",2107,"GAEL0180",10,10,9,12,11,1989,505,343,1,"a.sham",2,"press",1,"GW","Go",1,187,3,9,"win","Win","win","press",1,"press","press",1
"530",2109,"GAEL0180",10,10,9,12,11,1922,879,913,1,"a.sham",2,"press",1,"GW","Go",1,189,3,10,"win","Win","win","press",1,"press","press",1
"531",2112,"GAEL0180",10,10,9,12,11,2076,986,363,0,"a.sham",2,"press",1,"GW","Go",1,192,3,11,"neutral","Win",NA,"press",0,NA,"press",1
"532",2118,"GAEL0180",10,10,9,12,11,2420,701,446,1,"a.sham",2,"press",1,"GW","Go",1,198,3,12,"win","Win","win","press",1,"press","press",1
"533",2124,"GAEL0180",10,10,9,12,11,2926,929,437,1,"a.sham",2,"press",1,"GW","Go",1,204,3,13,"win","Win","win","press",1,"press","press",1
"534",2128,"GAEL0180",10,10,9,12,11,2039,557,494,1,"a.sham",2,"press",1,"GW","Go",1,208,3,14,"win","Win","win","press",1,"press","press",1
"535",2132,"GAEL0180",10,10,9,12,11,2086,500,432,1,"a.sham",2,"press",1,"GW","Go",1,212,3,15,"win","Win","win","press",1,"press","press",1
"536",2141,"GAEL0180",10,10,9,12,11,1659,947,623,1,"a.sham",2,"press",1,"GW","Go",1,221,3,16,"win","Win","win","press",1,"press","press",1
"537",2145,"GAEL0180",10,10,9,12,11,1838,856,378,1,"a.sham",2,"press",1,"GW","Go",1,225,3,17,"win","Win","win","press",1,"press","press",1
"538",2146,"GAEL0180",10,10,9,12,11,1871,529,600,0,"a.sham",2,"press",1,"GW","Go",1,226,3,18,"neutral","Win",NA,"press",0,NA,"press",1
"539",2151,"GAEL0180",10,10,9,12,11,1743,820,462,1,"a.sham",2,"press",1,"GW","Go",1,231,3,19,"win","Win","win","press",1,"press","press",1
"540",2153,"GAEL0180",10,10,9,12,11,2936,602,443,1,"a.sham",2,"press",1,"GW","Go",1,233,3,20,"win","Win","win","press",1,"press",NA,NA
"541",2164,"GAEL0180",16,16,15,14,13,1758,852,794,1,"a.sham",2,"press",1,"GW","Go",1,244,4,1,"win","Win","win","press",1,"press","press",1
"542",2170,"GAEL0180",16,16,15,14,13,2266,762,697,1,"a.sham",2,"press",1,"GW","Go",1,250,4,2,"win","Win","win","press",1,"press","press",1
"543",2171,"GAEL0180",16,16,15,14,13,1469,601,571,0,"a.sham",2,"press",1,"GW","Go",1,251,4,3,"neutral","Win",NA,"press",0,NA,"press",1
"544",2172,"GAEL0180",16,16,15,14,13,2936,949,425,1,"a.sham",2,"press",1,"GW","Go",1,252,4,4,"win","Win","win","press",1,"press","press",1
"545",2174,"GAEL0180",16,16,15,14,13,2460,509,497,1,"a.sham",2,"press",1,"GW","Go",1,254,4,5,"win","Win","win","press",1,"press","press",1
"546",2175,"GAEL0180",16,16,15,14,13,1988,682,393,0,"a.sham",2,"press",1,"GW","Go",1,255,4,6,"neutral","Win",NA,"press",0,NA,"press",1
"547",2176,"GAEL0180",16,16,15,14,13,2289,697,435,1,"a.sham",2,"press",1,"GW","Go",1,256,4,7,"win","Win","win","press",1,"press","press",1
"548",2177,"GAEL0180",16,16,15,14,13,2232,832,421,1,"a.sham",2,"press",1,"GW","Go",1,257,4,8,"win","Win","win","press",1,"press","press",1
"549",2189,"GAEL0180",16,16,15,14,13,2298,902,554,1,"a.sham",2,"press",1,"GW","Go",1,269,4,9,"win","Win","win","press",1,"press","press",1
"550",2190,"GAEL0180",16,16,15,14,13,2222,836,553,1,"a.sham",2,"press",1,"GW","Go",1,270,4,10,"win","Win","win","press",1,"press","press",1
"551",2194,"GAEL0180",16,16,15,14,13,2435,831,436,1,"a.sham",2,"press",1,"GW","Go",1,274,4,11,"win","Win","win","press",1,"press","press",1
"552",2197,"GAEL0180",16,16,15,14,13,1470,839,487,1,"a.sham",2,"press",1,"GW","Go",1,277,4,12,"win","Win","win","press",1,"press","press",1
"553",2205,"GAEL0180",16,16,15,14,13,1723,702,418,0,"a.sham",2,"press",1,"GW","Go",1,285,4,13,"neutral","Win",NA,"press",0,NA,"press",1
"554",2208,"GAEL0180",16,16,15,14,13,1736,624,560,1,"a.sham",2,"press",1,"GW","Go",1,288,4,14,"win","Win","win","press",1,"press","press",1
"555",2209,"GAEL0180",16,16,15,14,13,2253,942,752,1,"a.sham",2,"press",1,"GW","Go",1,289,4,15,"win","Win","win","press",1,"press","press",1
"556",2222,"GAEL0180",16,16,15,14,13,1668,541,569,1,"a.sham",2,"press",1,"GW","Go",1,302,4,16,"win","Win","win","press",1,"press","press",1
"557",2233,"GAEL0180",16,16,15,14,13,3243,612,428,1,"a.sham",2,"press",1,"GW","Go",1,313,4,17,"win","Win","win","press",1,"press","press",1
"558",2236,"GAEL0180",16,16,15,14,13,3235,663,501,1,"a.sham",2,"press",1,"GW","Go",1,316,4,18,"win","Win","win","press",1,"press","press",1
"559",2239,"GAEL0180",16,16,15,14,13,1782,866,544,0,"a.sham",2,"press",1,"GW","Go",1,319,4,19,"neutral","Win",NA,"press",0,NA,"press",1
"560",2240,"GAEL0180",16,16,15,14,13,2140,933,404,1,"a.sham",2,"press",1,"GW","Go",1,320,4,20,"win","Win","win",NA,1,NA,NA,NA
"561",2244,"JAKA0154",4,4,3,2,1,1743,914,0,0,"a.sham",2,"no_press",0,"GW","Go",0,4,1,1,"neutral","Win",NA,"no_press",1,"no_press","no_press",0
"562",2247,"JAKA0154",4,4,3,2,1,1246,880,0,0,"a.sham",2,"no_press",0,"GW","Go",0,7,1,2,"neutral","Win",NA,"press",1,"press","press",1
"563",2252,"JAKA0154",4,4,3,2,1,1861,788,1235,0,"a.sham",2,"press",1,"GW","Go",1,12,1,3,"neutral","Win",NA,"no_press",0,NA,"no_press",0
"564",2255,"JAKA0154",4,4,3,2,1,1610,554,0,0,"a.sham",2,"no_press",0,"GW","Go",0,15,1,4,"neutral","Win",NA,"no_press",1,"no_press","no_press",0
"565",2260,"JAKA0154",4,4,3,2,1,2678,851,0,0,"a.sham",2,"no_press",0,"GW","Go",0,20,1,5,"neutral","Win",NA,"no_press",1,"no_press","no_press",0
"566",2262,"JAKA0154",4,4,3,2,1,1386,709,0,0,"a.sham",2,"no_press",0,"GW","Go",0,22,1,6,"neutral","Win",NA,"no_press",1,"no_press","no_press",0
"567",2270,"JAKA0154",4,4,3,2,1,3219,927,0,0,"a.sham",2,"no_press",0,"GW","Go",0,30,1,7,"neutral","Win",NA,"press",1,"press","press",1
"568",2271,"JAKA0154",4,4,3,2,1,2572,724,905,1,"a.sham",2,"press",1,"GW","Go",1,31,1,8,"win","Win","win","press",1,"press","press",1
"569",2274,"JAKA0154",4,4,3,2,1,1600,634,696,0,"a.sham",2,"press",1,"GW","Go",1,34,1,9,"neutral","Win",NA,"press",0,NA,"press",1
"570",2281,"JAKA0154",4,4,3,2,1,1638,854,1196,0,"a.sham",2,"press",1,"GW","Go",1,41,1,10,"neutral","Win",NA,"press",0,NA,"press",1
"571",2294,"JAKA0154",4,4,3,2,1,2180,898,1019,1,"a.sham",2,"press",1,"GW","Go",1,54,1,11,"win","Win","win","press",1,"press","press",1
"572",2297,"JAKA0154",4,4,3,2,1,1892,631,472,1,"a.sham",2,"press",1,"GW","Go",1,57,1,12,"win","Win","win","press",1,"press","press",1
"573",2298,"JAKA0154",4,4,3,2,1,2649,768,1156,1,"a.sham",2,"press",1,"GW","Go",1,58,1,13,"win","Win","win","press",1,"press","press",1
"574",2306,"JAKA0154",4,4,3,2,1,3460,914,1436,1,"a.sham",2,"press",1,"GW","Go",1,66,1,14,"win","Win","win","press",1,"press","press",1
"575",2310,"JAKA0154",4,4,3,2,1,1733,695,1136,1,"a.sham",2,"press",1,"GW","Go",1,70,1,15,"win","Win","win","press",1,"press","press",1
"576",2311,"JAKA0154",4,4,3,2,1,1000,985,552,1,"a.sham",2,"press",1,"GW","Go",1,71,1,16,"win","Win","win","press",1,"press","press",1
"577",2312,"JAKA0154",4,4,3,2,1,1268,557,391,1,"a.sham",2,"press",1,"GW","Go",1,72,1,17,"win","Win","win","press",1,"press","press",1
"578",2313,"JAKA0154",4,4,3,2,1,1989,867,430,1,"a.sham",2,"press",1,"GW","Go",1,73,1,18,"win","Win","win","press",1,"press","press",1
"579",2315,"JAKA0154",4,4,3,2,1,2583,617,608,1,"a.sham",2,"press",1,"GW","Go",1,75,1,19,"win","Win","win","press",1,"press","press",1
"580",2317,"JAKA0154",4,4,3,2,1,2354,717,879,0,"a.sham",2,"press",1,"GW","Go",1,77,1,20,"neutral","Win",NA,"no_press",0,NA,NA,NA
"581",2325,"JAKA0154",8,8,5,6,7,1636,628,0,0,"a.sham",2,"no_press",0,"GW","Go",0,85,2,1,"neutral","Win",NA,"no_press",1,"no_press","no_press",0
"582",2333,"JAKA0154",8,8,5,6,7,1528,542,0,0,"a.sham",2,"no_press",0,"GW","Go",0,93,2,2,"neutral","Win",NA,"press",1,"press","press",1
"583",2337,"JAKA0154",8,8,5,6,7,1526,936,1232,1,"a.sham",2,"press",1,"GW","Go",1,97,2,3,"win","Win","win","press",1,"press","press",1
"584",2340,"JAKA0154",8,8,5,6,7,2020,758,1049,1,"a.sham",2,"press",1,"GW","Go",1,100,2,4,"win","Win","win","press",1,"press","press",1
"585",2347,"JAKA0154",8,8,5,6,7,2898,732,1415,1,"a.sham",2,"press",1,"GW","Go",1,107,2,5,"win","Win","win","press",1,"press","press",1
"586",2349,"JAKA0154",8,8,5,6,7,2209,529,981,1,"a.sham",2,"press",1,"GW","Go",1,109,2,6,"win","Win","win","press",1,"press","press",1
"587",2351,"JAKA0154",8,8,5,6,7,1833,504,825,1,"a.sham",2,"press",1,"GW","Go",1,111,2,7,"win","Win","win","press",1,"press","press",1
"588",2353,"JAKA0154",8,8,5,6,7,2054,642,869,1,"a.sham",2,"press",1,"GW","Go",1,113,2,8,"win","Win","win","no_press",1,"no_press","no_press",0
"589",2359,"JAKA0154",8,8,5,6,7,1544,509,0,1,"a.sham",2,"no_press",0,"GW","Go",0,119,2,9,"win","Win","win","no_press",0,NA,"no_press",0
"590",2361,"JAKA0154",8,8,5,6,7,2293,921,0,0,"a.sham",2,"no_press",0,"GW","Go",0,121,2,10,"neutral","Win",NA,"no_press",1,"no_press","no_press",0
"591",2364,"JAKA0154",8,8,5,6,7,1342,772,0,0,"a.sham",2,"no_press",0,"GW","Go",0,124,2,11,"neutral","Win",NA,"no_press",1,"no_press","no_press",0
"592",2365,"JAKA0154",8,8,5,6,7,2173,601,0,0,"a.sham",2,"no_press",0,"GW","Go",0,125,2,12,"neutral","Win",NA,"no_press",1,"no_press","no_press",0
"593",2366,"JAKA0154",8,8,5,6,7,1922,855,0,1,"a.sham",2,"no_press",0,"GW","Go",0,126,2,13,"win","Win","win","no_press",0,NA,"no_press",0
"594",2367,"JAKA0154",8,8,5,6,7,1782,823,0,0,"a.sham",2,"no_press",0,"GW","Go",0,127,2,14,"neutral","Win",NA,"no_press",1,"no_press","no_press",0
"595",2375,"JAKA0154",8,8,5,6,7,1736,726,0,0,"a.sham",2,"no_press",0,"GW","Go",0,135,2,15,"neutral","Win",NA,"press",1,"press","press",1
"596",2376,"JAKA0154",8,8,5,6,7,1500,664,887,0,"a.sham",2,"press",1,"GW","Go",1,136,2,16,"neutral","Win",NA,"press",0,NA,"press",1
"597",2379,"JAKA0154",8,8,5,6,7,1669,944,1327,1,"a.sham",2,"press",1,"GW","Go",1,139,2,17,"win","Win","win","press",1,"press","press",1
"598",2382,"JAKA0154",8,8,5,6,7,1615,898,1452,1,"a.sham",2,"press",1,"GW","Go",1,142,2,18,"win","Win","win","press",1,"press","press",1
"599",2386,"JAKA0154",8,8,5,6,7,5000,790,674,1,"a.sham",2,"press",1,"GW","Go",1,146,2,19,"win","Win","win","no_press",1,"no_press","no_press",0
"600",2397,"JAKA0154",8,8,5,6,7,2107,663,0,1,"a.sham",2,"no_press",0,"GW","Go",0,157,2,20,"win","Win","win","no_press",0,NA,NA,NA
"601",2406,"JAKA0154",10,10,9,12,11,2581,679,0,0,"a.sham",2,"no_press",0,"GW","Go",0,166,3,1,"neutral","Win",NA,"press",1,"press","press",1
"602",2407,"JAKA0154",10,10,9,12,11,1461,734,694,1,"a.sham",2,"press",1,"GW","Go",1,167,3,2,"win","Win","win","press",1,"press","press",1
"603",2409,"JAKA0154",10,10,9,12,11,2640,983,824,0,"a.sham",2,"press",1,"GW","Go",1,169,3,3,"neutral","Win",NA,"press",0,NA,"press",1
"604",2415,"JAKA0154",10,10,9,12,11,2222,881,922,1,"a.sham",2,"press",1,"GW","Go",1,175,3,4,"win","Win","win","press",1,"press","press",1
"605",2423,"JAKA0154",10,10,9,12,11,1788,689,914,1,"a.sham",2,"press",1,"GW","Go",1,183,3,5,"win","Win","win","press",1,"press","press",1
"606",2433,"JAKA0154",10,10,9,12,11,2203,807,602,1,"a.sham",2,"press",1,"GW","Go",1,193,3,6,"win","Win","win","press",1,"press","press",1
"607",2437,"JAKA0154",10,10,9,12,11,2763,876,789,0,"a.sham",2,"press",1,"GW","Go",1,197,3,7,"neutral","Win",NA,"press",0,NA,"press",1
"608",2438,"JAKA0154",10,10,9,12,11,2253,588,603,1,"a.sham",2,"press",1,"GW","Go",1,198,3,8,"win","Win","win","press",1,"press","press",1
"609",2443,"JAKA0154",10,10,9,12,11,3243,828,821,1,"a.sham",2,"press",1,"GW","Go",1,203,3,9,"win","Win","win","press",1,"press","press",1
"610",2447,"JAKA0154",10,10,9,12,11,1953,586,641,1,"a.sham",2,"press",1,"GW","Go",1,207,3,10,"win","Win","win","press",1,"press","press",1
"611",2451,"JAKA0154",10,10,9,12,11,2078,561,480,1,"a.sham",2,"press",1,"GW","Go",1,211,3,11,"win","Win","win","press",1,"press","press",1
"612",2454,"JAKA0154",10,10,9,12,11,2709,954,565,0,"a.sham",2,"press",1,"GW","Go",1,214,3,12,"neutral","Win",NA,"press",0,NA,"press",1
"613",2455,"JAKA0154",10,10,9,12,11,2374,761,437,1,"a.sham",2,"press",1,"GW","Go",1,215,3,13,"win","Win","win","press",1,"press","press",1
"614",2456,"JAKA0154",10,10,9,12,11,2276,851,586,1,"a.sham",2,"press",1,"GW","Go",1,216,3,14,"win","Win","win","press",1,"press","press",1
"615",2457,"JAKA0154",10,10,9,12,11,2102,591,661,0,"a.sham",2,"press",1,"GW","Go",1,217,3,15,"neutral","Win",NA,"press",0,NA,"press",1
"616",2460,"JAKA0154",10,10,9,12,11,2306,897,634,1,"a.sham",2,"press",1,"GW","Go",1,220,3,16,"win","Win","win","no_press",1,"no_press","no_press",0
"617",2462,"JAKA0154",10,10,9,12,11,2048,597,0,0,"a.sham",2,"no_press",0,"GW","Go",0,222,3,17,"neutral","Win",NA,"press",1,"press","press",1
"618",2466,"JAKA0154",10,10,9,12,11,3179,643,641,1,"a.sham",2,"press",1,"GW","Go",1,226,3,18,"win","Win","win","press",1,"press","press",1
"619",2470,"JAKA0154",10,10,9,12,11,2829,628,622,1,"a.sham",2,"press",1,"GW","Go",1,230,3,19,"win","Win","win","press",1,"press","press",1
"620",2476,"JAKA0154",10,10,9,12,11,2485,548,493,1,"a.sham",2,"press",1,"GW","Go",1,236,3,20,"win","Win","win","no_press",1,"no_press",NA,NA
"621",2487,"JAKA0154",14,14,13,16,15,1247,597,0,0,"a.sham",2,"no_press",0,"GW","Go",0,247,4,1,"neutral","Win",NA,"press",1,"press","press",1
"622",2491,"JAKA0154",14,14,13,16,15,1659,982,902,1,"a.sham",2,"press",1,"GW","Go",1,251,4,2,"win","Win","win","no_press",1,"no_press","no_press",0
"623",2495,"JAKA0154",14,14,13,16,15,1470,760,0,0,"a.sham",2,"no_press",0,"GW","Go",0,255,4,3,"neutral","Win",NA,"no_press",1,"no_press","no_press",0
"624",2500,"JAKA0154",14,14,13,16,15,2398,669,0,1,"a.sham",2,"no_press",0,"GW","Go",0,260,4,4,"win","Win","win","press",0,NA,"press",1
"625",2503,"JAKA0154",14,14,13,16,15,2128,505,1112,1,"a.sham",2,"press",1,"GW","Go",1,263,4,5,"win","Win","win","press",1,"press","press",1
"626",2508,"JAKA0154",14,14,13,16,15,2014,520,939,1,"a.sham",2,"press",1,"GW","Go",1,268,4,6,"win","Win","win","press",1,"press","press",1
"627",2509,"JAKA0154",14,14,13,16,15,1671,553,696,0,"a.sham",2,"press",1,"GW","Go",1,269,4,7,"neutral","Win",NA,"no_press",0,NA,"no_press",0
"628",2522,"JAKA0154",14,14,13,16,15,2053,684,0,0,"a.sham",2,"no_press",0,"GW","Go",0,282,4,8,"neutral","Win",NA,"no_press",1,"no_press","no_press",0
"629",2524,"JAKA0154",14,14,13,16,15,1749,548,0,0,"a.sham",2,"no_press",0,"GW","Go",0,284,4,9,"neutral","Win",NA,"press",1,"press","press",1
"630",2525,"JAKA0154",14,14,13,16,15,2511,586,714,1,"a.sham",2,"press",1,"GW","Go",1,285,4,10,"win","Win","win","press",1,"press","press",1
"631",2526,"JAKA0154",14,14,13,16,15,1565,570,509,0,"a.sham",2,"press",1,"GW","Go",1,286,4,11,"neutral","Win",NA,"press",0,NA,"press",1
"632",2535,"JAKA0154",14,14,13,16,15,2503,576,747,1,"a.sham",2,"press",1,"GW","Go",1,295,4,12,"win","Win","win","press",1,"press","press",1
"633",2537,"JAKA0154",14,14,13,16,15,1531,739,440,1,"a.sham",2,"press",1,"GW","Go",1,297,4,13,"win","Win","win","press",1,"press","press",1
"634",2539,"JAKA0154",14,14,13,16,15,1547,530,586,1,"a.sham",2,"press",1,"GW","Go",1,299,4,14,"win","Win","win","press",1,"press","press",1
"635",2540,"JAKA0154",14,14,13,16,15,2071,516,524,1,"a.sham",2,"press",1,"GW","Go",1,300,4,15,"win","Win","win","press",1,"press","press",1
"636",2548,"JAKA0154",14,14,13,16,15,2507,754,1089,1,"a.sham",2,"press",1,"GW","Go",1,308,4,16,"win","Win","win","press",1,"press","press",1
"637",2552,"JAKA0154",14,14,13,16,15,1277,874,648,1,"a.sham",2,"press",1,"GW","Go",1,312,4,17,"win","Win","win","press",1,"press","press",1
"638",2554,"JAKA0154",14,14,13,16,15,2371,602,564,1,"a.sham",2,"press",1,"GW","Go",1,314,4,18,"win","Win","win","press",1,"press","press",1
"639",2558,"JAKA0154",14,14,13,16,15,1279,825,653,0,"a.sham",2,"press",1,"GW","Go",1,318,4,19,"neutral","Win",NA,"press",0,NA,"press",1
"640",2559,"JAKA0154",14,14,13,16,15,1844,683,602,1,"a.sham",2,"press",1,"GW","Go",1,319,4,20,"win","Win","win",NA,1,NA,NA,NA
"641",2567,"JYDF0098",4,4,3,2,1,1782,641,683,1,"a.sham",2,"press",1,"GW","Go",1,7,1,1,"win","Win","win","press",1,"press","press",1
"642",2577,"JYDF0098",4,4,3,2,1,1646,869,509,1,"a.sham",2,"press",1,"GW","Go",1,17,1,2,"win","Win","win","press",1,"press","press",1
"643",2580,"JYDF0098",4,4,3,2,1,2107,645,665,1,"a.sham",2,"press",1,"GW","Go",1,20,1,3,"win","Win","win","press",1,"press","press",1
"644",2581,"JYDF0098",4,4,3,2,1,1551,677,645,0,"a.sham",2,"press",1,"GW","Go",1,21,1,4,"neutral","Win",NA,"press",0,NA,"press",1
"645",2584,"JYDF0098",4,4,3,2,1,1268,666,568,1,"a.sham",2,"press",1,"GW","Go",1,24,1,5,"win","Win","win","press",1,"press","press",1
"646",2586,"JYDF0098",4,4,3,2,1,2460,657,529,1,"a.sham",2,"press",1,"GW","Go",1,26,1,6,"win","Win","win","press",1,"press","press",1
"647",2588,"JYDF0098",4,4,3,2,1,1418,975,632,1,"a.sham",2,"press",1,"GW","Go",1,28,1,7,"win","Win","win","press",1,"press","press",1
"648",2590,"JYDF0098",4,4,3,2,1,2599,991,577,0,"a.sham",2,"press",1,"GW","Go",1,30,1,8,"neutral","Win",NA,"press",0,NA,"press",1
"649",2591,"JYDF0098",4,4,3,2,1,2818,854,585,1,"a.sham",2,"press",1,"GW","Go",1,31,1,9,"win","Win","win","press",1,"press","press",1
"650",2594,"JYDF0098",4,4,3,2,1,1000,785,457,1,"a.sham",2,"press",1,"GW","Go",1,34,1,10,"win","Win","win","press",1,"press","press",1
"651",2595,"JYDF0098",4,4,3,2,1,1779,740,517,0,"a.sham",2,"press",1,"GW","Go",1,35,1,11,"neutral","Win",NA,"press",0,NA,"press",1
"652",2597,"JYDF0098",4,4,3,2,1,2080,711,547,1,"a.sham",2,"press",1,"GW","Go",1,37,1,12,"win","Win","win","press",1,"press","press",1
"653",2600,"JYDF0098",4,4,3,2,1,2547,633,498,1,"a.sham",2,"press",1,"GW","Go",1,40,1,13,"win","Win","win","press",1,"press","press",1
"654",2603,"JYDF0098",4,4,3,2,1,2255,723,628,0,"a.sham",2,"press",1,"GW","Go",1,43,1,14,"neutral","Win",NA,"press",0,NA,"press",1
"655",2606,"JYDF0098",4,4,3,2,1,1737,950,590,1,"a.sham",2,"press",1,"GW","Go",1,46,1,15,"win","Win","win","press",1,"press","press",1
"656",2620,"JYDF0098",4,4,3,2,1,2936,576,518,1,"a.sham",2,"press",1,"GW","Go",1,60,1,16,"win","Win","win","press",1,"press","press",1
"657",2622,"JYDF0098",4,4,3,2,1,1510,682,555,1,"a.sham",2,"press",1,"GW","Go",1,62,1,17,"win","Win","win","press",1,"press","press",1
"658",2627,"JYDF0098",4,4,3,2,1,1547,697,498,1,"a.sham",2,"press",1,"GW","Go",1,67,1,18,"win","Win","win","press",1,"press","press",1
"659",2634,"JYDF0098",4,4,3,2,1,2074,993,515,1,"a.sham",2,"press",1,"GW","Go",1,74,1,19,"win","Win","win","press",1,"press","press",1
"660",2639,"JYDF0098",4,4,3,2,1,1819,723,497,1,"a.sham",2,"press",1,"GW","Go",1,79,1,20,"win","Win","win","press",1,"press",NA,NA
"661",2642,"JYDF0098",6,6,7,8,5,3367,672,610,1,"a.sham",2,"press",1,"GW","Go",1,82,2,1,"win","Win","win","no_press",1,"no_press","no_press",0
"662",2643,"JYDF0098",6,6,7,8,5,1960,600,0,0,"a.sham",2,"no_press",0,"GW","Go",0,83,2,2,"neutral","Win",NA,"press",1,"press","press",1
"663",2645,"JYDF0098",6,6,7,8,5,1592,958,763,1,"a.sham",2,"press",1,"GW","Go",1,85,2,3,"win","Win","win","press",1,"press","press",1
"664",2648,"JYDF0098",6,6,7,8,5,2420,794,603,1,"a.sham",2,"press",1,"GW","Go",1,88,2,4,"win","Win","win","press",1,"press","press",1
"665",2650,"JYDF0098",6,6,7,8,5,1723,911,611,1,"a.sham",2,"press",1,"GW","Go",1,90,2,5,"win","Win","win","press",1,"press","press",1
"666",2660,"JYDF0098",6,6,7,8,5,2185,787,444,1,"a.sham",2,"press",1,"GW","Go",1,100,2,6,"win","Win","win","press",1,"press","press",1
"667",2671,"JYDF0098",6,6,7,8,5,1600,730,579,0,"a.sham",2,"press",1,"GW","Go",1,111,2,7,"neutral","Win",NA,"press",0,NA,"press",1
"668",2673,"JYDF0098",6,6,7,8,5,2078,713,473,0,"a.sham",2,"press",1,"GW","Go",1,113,2,8,"neutral","Win",NA,"press",0,NA,"press",1
"669",2675,"JYDF0098",6,6,7,8,5,1919,946,524,1,"a.sham",2,"press",1,"GW","Go",1,115,2,9,"win","Win","win","press",1,"press","press",1
"670",2677,"JYDF0098",6,6,7,8,5,2151,696,503,1,"a.sham",2,"press",1,"GW","Go",1,117,2,10,"win","Win","win","press",1,"press","press",1
"671",2682,"JYDF0098",6,6,7,8,5,1655,939,553,1,"a.sham",2,"press",1,"GW","Go",1,122,2,11,"win","Win","win","press",1,"press","press",1
"672",2685,"JYDF0098",6,6,7,8,5,2273,682,595,1,"a.sham",2,"press",1,"GW","Go",1,125,2,12,"win","Win","win","press",1,"press","press",1
"673",2689,"JYDF0098",6,6,7,8,5,2668,924,630,0,"a.sham",2,"press",1,"GW","Go",1,129,2,13,"neutral","Win",NA,"press",0,NA,"press",1
"674",2690,"JYDF0098",6,6,7,8,5,2709,767,581,1,"a.sham",2,"press",1,"GW","Go",1,130,2,14,"win","Win","win","press",1,"press","press",1
"675",2692,"JYDF0098",6,6,7,8,5,1988,588,565,1,"a.sham",2,"press",1,"GW","Go",1,132,2,15,"win","Win","win","press",1,"press","press",1
"676",2694,"JYDF0098",6,6,7,8,5,1497,841,550,1,"a.sham",2,"press",1,"GW","Go",1,134,2,16,"win","Win","win","press",1,"press","press",1
"677",2697,"JYDF0098",6,6,7,8,5,3219,581,571,0,"a.sham",2,"press",1,"GW","Go",1,137,2,17,"neutral","Win",NA,"press",0,NA,"press",1
"678",2709,"JYDF0098",6,6,7,8,5,2520,536,514,1,"a.sham",2,"press",1,"GW","Go",1,149,2,18,"win","Win","win","press",1,"press","press",1
"679",2710,"JYDF0098",6,6,7,8,5,2127,698,477,1,"a.sham",2,"press",1,"GW","Go",1,150,2,19,"win","Win","win","press",1,"press","press",1
"680",2715,"JYDF0098",6,6,7,8,5,2244,705,568,1,"a.sham",2,"press",1,"GW","Go",1,155,2,20,"win","Win","win","press",1,"press",NA,NA
"681",2723,"JYDF0098",12,12,9,10,11,1857,797,511,0,"a.sham",2,"press",1,"GW","Go",1,163,3,1,"neutral","Win",NA,"no_press",0,NA,"no_press",0
"682",2724,"JYDF0098",12,12,9,10,11,2365,945,0,0,"a.sham",2,"no_press",0,"GW","Go",0,164,3,2,"neutral","Win",NA,"no_press",1,"no_press","no_press",0
"683",2734,"JYDF0098",12,12,9,10,11,2671,503,0,0,"a.sham",2,"no_press",0,"GW","Go",0,174,3,3,"neutral","Win",NA,"press",1,"press","press",1
"684",2736,"JYDF0098",12,12,9,10,11,2926,645,464,1,"a.sham",2,"press",1,"GW","Go",1,176,3,4,"win","Win","win","press",1,"press","press",1
"685",2740,"JYDF0098",12,12,9,10,11,3460,706,766,1,"a.sham",2,"press",1,"GW","Go",1,180,3,5,"win","Win","win","press",1,"press","press",1
"686",2741,"JYDF0098",12,12,9,10,11,1504,599,823,0,"a.sham",2,"press",1,"GW","Go",1,181,3,6,"neutral","Win",NA,"press",0,NA,"press",1
"687",2747,"JYDF0098",12,12,9,10,11,1832,549,583,1,"a.sham",2,"press",1,"GW","Go",1,187,3,7,"win","Win","win","press",1,"press","press",1
"688",2749,"JYDF0098",12,12,9,10,11,1720,521,444,1,"a.sham",2,"press",1,"GW","Go",1,189,3,8,"win","Win","win","press",1,"press","press",1
"689",2752,"JYDF0098",12,12,9,10,11,2211,865,722,1,"a.sham",2,"press",1,"GW","Go",1,192,3,9,"win","Win","win","press",1,"press","press",1
"690",2755,"JYDF0098",12,12,9,10,11,2107,592,681,1,"a.sham",2,"press",1,"GW","Go",1,195,3,10,"win","Win","win","press",1,"press","press",1
"691",2760,"JYDF0098",12,12,9,10,11,2140,705,922,1,"a.sham",2,"press",1,"GW","Go",1,200,3,11,"win","Win","win","press",1,"press","press",1
"692",2764,"JYDF0098",12,12,9,10,11,1757,907,730,1,"a.sham",2,"press",1,"GW","Go",1,204,3,12,"win","Win","win","press",1,"press","press",1
"693",2772,"JYDF0098",12,12,9,10,11,1631,875,611,0,"a.sham",2,"press",1,"GW","Go",1,212,3,13,"neutral","Win",NA,"press",0,NA,"press",1
"694",2774,"JYDF0098",12,12,9,10,11,1953,956,577,1,"a.sham",2,"press",1,"GW","Go",1,214,3,14,"win","Win","win","press",1,"press","press",1
"695",2775,"JYDF0098",12,12,9,10,11,1000,785,760,0,"a.sham",2,"press",1,"GW","Go",1,215,3,15,"neutral","Win",NA,"press",0,NA,"press",1
"696",2781,"JYDF0098",12,12,9,10,11,2442,873,582,1,"a.sham",2,"press",1,"GW","Go",1,221,3,16,"win","Win","win","press",1,"press","press",1
"697",2784,"JYDF0098",12,12,9,10,11,1988,594,524,1,"a.sham",2,"press",1,"GW","Go",1,224,3,17,"win","Win","win","press",1,"press","press",1
"698",2786,"JYDF0098",12,12,9,10,11,1526,865,510,1,"a.sham",2,"press",1,"GW","Go",1,226,3,18,"win","Win","win","press",1,"press","press",1
"699",2789,"JYDF0098",12,12,9,10,11,2334,635,518,1,"a.sham",2,"press",1,"GW","Go",1,229,3,19,"win","Win","win","press",1,"press","press",1
"700",2793,"JYDF0098",12,12,9,10,11,1710,529,648,1,"a.sham",2,"press",1,"GW","Go",1,233,3,20,"win","Win","win","press",1,"press",NA,NA
"701",2803,"JYDF0098",16,16,13,14,15,2371,771,512,1,"a.sham",2,"press",1,"GW","Go",1,243,4,1,"win","Win","win","press",1,"press","press",1
"702",2804,"JYDF0098",16,16,13,14,15,2087,996,490,1,"a.sham",2,"press",1,"GW","Go",1,244,4,2,"win","Win","win","press",1,"press","press",1
"703",2807,"JYDF0098",16,16,13,14,15,1832,950,693,0,"a.sham",2,"press",1,"GW","Go",1,247,4,3,"neutral","Win",NA,"press",0,NA,"press",1
"704",2810,"JYDF0098",16,16,13,14,15,2276,616,557,0,"a.sham",2,"press",1,"GW","Go",1,250,4,4,"neutral","Win",NA,"press",0,NA,"press",1
"705",2811,"JYDF0098",16,16,13,14,15,2403,921,556,1,"a.sham",2,"press",1,"GW","Go",1,251,4,5,"win","Win","win","press",1,"press","press",1
"706",2813,"JYDF0098",16,16,13,14,15,2485,872,900,1,"a.sham",2,"press",1,"GW","Go",1,253,4,6,"win","Win","win","press",1,"press","press",1
"707",2820,"JYDF0098",16,16,13,14,15,2898,706,697,1,"a.sham",2,"press",1,"GW","Go",1,260,4,7,"win","Win","win","press",1,"press","press",1
"708",2823,"JYDF0098",16,16,13,14,15,1447,714,526,1,"a.sham",2,"press",1,"GW","Go",1,263,4,8,"win","Win","win","press",1,"press","press",1
"709",2826,"JYDF0098",16,16,13,14,15,1743,668,637,0,"a.sham",2,"press",1,"GW","Go",1,266,4,9,"neutral","Win",NA,"press",0,NA,"press",1
"710",2829,"JYDF0098",16,16,13,14,15,1820,639,534,1,"a.sham",2,"press",1,"GW","Go",1,269,4,10,"win","Win","win","press",1,"press","press",1
"711",2835,"JYDF0098",16,16,13,14,15,1277,994,531,1,"a.sham",2,"press",1,"GW","Go",1,275,4,11,"win","Win","win","press",1,"press","press",1
"712",2839,"JYDF0098",16,16,13,14,15,1400,576,1001,1,"a.sham",2,"press",1,"GW","Go",1,279,4,12,"win","Win","win","press",1,"press","press",1
"713",2841,"JYDF0098",16,16,13,14,15,1000,635,502,1,"a.sham",2,"press",1,"GW","Go",1,281,4,13,"win","Win","win","press",1,"press","press",1
"714",2843,"JYDF0098",16,16,13,14,15,2927,955,535,1,"a.sham",2,"press",1,"GW","Go",1,283,4,14,"win","Win","win","press",1,"press","press",1
"715",2846,"JYDF0098",16,16,13,14,15,2247,866,729,1,"a.sham",2,"press",1,"GW","Go",1,286,4,15,"win","Win","win","press",1,"press","press",1
"716",2848,"JYDF0098",16,16,13,14,15,2121,771,767,0,"a.sham",2,"press",1,"GW","Go",1,288,4,16,"neutral","Win",NA,"press",0,NA,"press",1
"717",2861,"JYDF0098",16,16,13,14,15,3094,947,682,1,"a.sham",2,"press",1,"GW","Go",1,301,4,17,"win","Win","win","press",1,"press","press",1
"718",2867,"JYDF0098",16,16,13,14,15,2076,800,513,1,"a.sham",2,"press",1,"GW","Go",1,307,4,18,"win","Win","win","press",1,"press","press",1
"719",2869,"JYDF0098",16,16,13,14,15,1975,874,476,1,"a.sham",2,"press",1,"GW","Go",1,309,4,19,"win","Win","win","press",1,"press","press",1
"720",2871,"JYDF0098",16,16,13,14,15,1706,738,490,1,"a.sham",2,"press",1,"GW","Go",1,311,4,20,"win","Win","win",NA,1,NA,NA,NA
"721",2894,"KLWT0036",4,4,1,2,3,1929,669,640,1,"a.sham",3,"press",1,"GW","Go",1,14,1,1,"win","Win","win","press",1,"press","press",1
"722",2896,"KLWT0036",4,4,1,2,3,2044,795,501,1,"a.sham",3,"press",1,"GW","Go",1,16,1,2,"win","Win","win","press",1,"press","press",1
"723",2898,"KLWT0036",4,4,1,2,3,1668,599,536,1,"a.sham",3,"press",1,"GW","Go",1,18,1,3,"win","Win","win","press",1,"press","press",1
"724",2899,"KLWT0036",4,4,1,2,3,2327,730,525,1,"a.sham",3,"press",1,"GW","Go",1,19,1,4,"win","Win","win","press",1,"press","press",1
"725",2901,"KLWT0036",4,4,1,2,3,2225,725,516,1,"a.sham",3,"press",1,"GW","Go",1,21,1,5,"win","Win","win","press",1,"press","press",1
