"","...1","ID","stim_ID","GW","GAL","NGW","NGL","jitter1","jitter2","RT","outcomefeed","condition","session","response","GoResponse","Cue","req_action","correct","trial_number","block","TrialCount","feedback","OutValence","salient","followup_beha","correct_feedback","followup_response","next_action","next_action_binary"
"1",1,"AAAA0432",3,4,1,2,3,3457,848,1331,-1,"a.sham",3,"press",1,"NGL","noGo",0,1,1,1,"lose","Avoid","lose","no_press",1,"no_press",NA,NA
"2",7,"AAAA0432",3,4,1,2,3,2200,872,0,0,"a.sham",3,"no_press",0,"NGL","noGo",1,7,1,2,"neutral","Avoid",NA,"no_press",1,"no_press","no_press",0
"3",9,"AAAA0432",3,4,1,2,3,2178,832,0,0,"a.sham",3,"no_press",0,"NGL","noGo",1,9,1,3,"neutral","Avoid",NA,"no_press",1,"no_press","no_press",0
"4",14,"AAAA0432",3,4,1,2,3,1659,928,0,0,"a.sham",3,"no_press",0,"NGL","noGo",1,14,1,4,"neutral","Avoid",NA,"no_press",1,"no_press","no_press",0
"5",18,"AAAA0432",3,4,1,2,3,1727,538,0,-1,"a.sham",3,"no_press",0,"NGL","noGo",1,18,1,5,"lose","Avoid","lose","no_press",0,NA,"no_press",0
"6",21,"AAAA0432",3,4,1,2,3,2137,733,0,0,"a.sham",3,"no_press",0,"NGL","noGo",1,21,1,6,"neutral","Avoid",NA,"no_press",1,"no_press","no_press",0
"7",22,"AAAA0432",3,4,1,2,3,1759,785,0,-1,"a.sham",3,"no_press",0,"NGL","noGo",1,22,1,7,"lose","Avoid","lose","no_press",0,NA,"no_press",0
"8",26,"AAAA0432",3,4,1,2,3,1744,844,0,0,"a.sham",3,"no_press",0,"NGL","noGo",1,26,1,8,"neutral","Avoid",NA,"no_press",1,"no_press","no_press",0
"9",28,"AAAA0432",3,4,1,2,3,2199,852,0,0,"a.sham",3,"no_press",0,"NGL","noGo",1,28,1,9,"neutral","Avoid",NA,"no_press",1,"no_press","no_press",0
"10",35,"AAAA0432",3,4,1,2,3,2174,709,0,0,"a.sham",3,"no_press",0,"NGL","noGo",1,35,1,10,"neutral","Avoid",NA,"no_press",1,"no_press","no_press",0
"11",41,"AAAA0432",3,4,1,2,3,1708,636,0,0,"a.sham",3,"no_press",0,"NGL","noGo",1,41,1,11,"neutral","Avoid",NA,"no_press",1,"no_press","no_press",0
"12",50,"AAAA0432",3,4,1,2,3,1744,711,0,0,"a.sham",3,"no_press",0,"NGL","noGo",1,50,1,12,"neutral","Avoid",NA,"no_press",1,"no_press","no_press",0
"13",51,"AAAA0432",3,4,1,2,3,2307,721,0,0,"a.sham",3,"no_press",0,"NGL","noGo",1,51,1,13,"neutral","Avoid",NA,"no_press",1,"no_press","no_press",0
"14",52,"AAAA0432",3,4,1,2,3,1711,948,0,0,"a.sham",3,"no_press",0,"NGL","noGo",1,52,1,14,"neutral","Avoid",NA,"no_press",1,"no_press","no_press",0
"15",57,"AAAA0432",3,4,1,2,3,1633,763,0,0,"a.sham",3,"no_press",0,"NGL","noGo",1,57,1,15,"neutral","Avoid",NA,"no_press",1,"no_press","no_press",0
"16",58,"AAAA0432",3,4,1,2,3,1487,534,0,-1,"a.sham",3,"no_press",0,"NGL","noGo",1,58,1,16,"lose","Avoid","lose","no_press",0,NA,"no_press",0
"17",66,"AAAA0432",3,4,1,2,3,1222,709,0,0,"a.sham",3,"no_press",0,"NGL","noGo",1,66,1,17,"neutral","Avoid",NA,"no_press",1,"no_press","no_press",0
"18",73,"AAAA0432",3,4,1,2,3,2757,825,0,-1,"a.sham",3,"no_press",0,"NGL","noGo",1,73,1,18,"lose","Avoid","lose","no_press",0,NA,"no_press",0
"19",78,"AAAA0432",3,4,1,2,3,1306,764,0,0,"a.sham",3,"no_press",0,"NGL","noGo",1,78,1,19,"neutral","Avoid",NA,"no_press",1,"no_press","no_press",0
"20",80,"AAAA0432",3,4,1,2,3,2224,915,0,0,"a.sham",3,"no_press",0,"NGL","noGo",1,80,1,20,"neutral","Avoid",NA,"no_press",1,"no_press",NA,NA
"21",85,"AAAA0432",5,6,7,8,5,1773,504,0,-1,"a.sham",3,"no_press",0,"NGL","noGo",1,85,2,1,"lose","Avoid","lose","no_press",0,NA,"no_press",0
"22",87,"AAAA0432",5,6,7,8,5,3073,892,0,0,"a.sham",3,"no_press",0,"NGL","noGo",1,87,2,2,"neutral","Avoid",NA,"no_press",1,"no_press","no_press",0
"23",88,"AAAA0432",5,6,7,8,5,2327,869,0,0,"a.sham",3,"no_press",0,"NGL","noGo",1,88,2,3,"neutral","Avoid",NA,"no_press",1,"no_press","no_press",0
"24",92,"AAAA0432",5,6,7,8,5,1518,875,0,0,"a.sham",3,"no_press",0,"NGL","noGo",1,92,2,4,"neutral","Avoid",NA,"no_press",1,"no_press","no_press",0
"25",96,"AAAA0432",5,6,7,8,5,1807,557,0,-1,"a.sham",3,"no_press",0,"NGL","noGo",1,96,2,5,"lose","Avoid","lose","no_press",0,NA,"no_press",0
"26",115,"AAAA0432",5,6,7,8,5,1574,867,0,0,"a.sham",3,"no_press",0,"NGL","noGo",1,115,2,6,"neutral","Avoid",NA,"no_press",1,"no_press","no_press",0
"27",116,"AAAA0432",5,6,7,8,5,2355,664,0,0,"a.sham",3,"no_press",0,"NGL","noGo",1,116,2,7,"neutral","Avoid",NA,"no_press",1,"no_press","no_press",0
"28",117,"AAAA0432",5,6,7,8,5,2186,843,0,0,"a.sham",3,"no_press",0,"NGL","noGo",1,117,2,8,"neutral","Avoid",NA,"no_press",1,"no_press","no_press",0
"29",128,"AAAA0432",5,6,7,8,5,2022,855,0,0,"a.sham",3,"no_press",0,"NGL","noGo",1,128,2,9,"neutral","Avoid",NA,"no_press",1,"no_press","no_press",0
"30",130,"AAAA0432",5,6,7,8,5,1776,631,0,0,"a.sham",3,"no_press",0,"NGL","noGo",1,130,2,10,"neutral","Avoid",NA,"no_press",1,"no_press","no_press",0
"31",131,"AAAA0432",5,6,7,8,5,3377,576,0,0,"a.sham",3,"no_press",0,"NGL","noGo",1,131,2,11,"neutral","Avoid",NA,"no_press",1,"no_press","no_press",0
"32",133,"AAAA0432",5,6,7,8,5,2188,741,0,0,"a.sham",3,"no_press",0,"NGL","noGo",1,133,2,12,"neutral","Avoid",NA,"no_press",1,"no_press","no_press",0
"33",134,"AAAA0432",5,6,7,8,5,1522,617,0,0,"a.sham",3,"no_press",0,"NGL","noGo",1,134,2,13,"neutral","Avoid",NA,"no_press",1,"no_press","no_press",0
"34",144,"AAAA0432",5,6,7,8,5,1491,756,0,0,"a.sham",3,"no_press",0,"NGL","noGo",1,144,2,14,"neutral","Avoid",NA,"no_press",1,"no_press","no_press",0
"35",146,"AAAA0432",5,6,7,8,5,1791,687,0,0,"a.sham",3,"no_press",0,"NGL","noGo",1,146,2,15,"neutral","Avoid",NA,"no_press",1,"no_press","no_press",0
"36",149,"AAAA0432",5,6,7,8,5,1418,776,0,0,"a.sham",3,"no_press",0,"NGL","noGo",1,149,2,16,"neutral","Avoid",NA,"no_press",1,"no_press","no_press",0
"37",151,"AAAA0432",5,6,7,8,5,1564,921,0,0,"a.sham",3,"no_press",0,"NGL","noGo",1,151,2,17,"neutral","Avoid",NA,"no_press",1,"no_press","no_press",0
"38",154,"AAAA0432",5,6,7,8,5,1462,879,0,0,"a.sham",3,"no_press",0,"NGL","noGo",1,154,2,18,"neutral","Avoid",NA,"no_press",1,"no_press","no_press",0
"39",155,"AAAA0432",5,6,7,8,5,1747,670,0,-1,"a.sham",3,"no_press",0,"NGL","noGo",1,155,2,19,"lose","Avoid","lose","no_press",0,NA,"no_press",0
"40",156,"AAAA0432",5,6,7,8,5,2525,715,0,0,"a.sham",3,"no_press",0,"NGL","noGo",1,156,2,20,"neutral","Avoid",NA,"no_press",1,"no_press",NA,NA
"41",172,"AAAA0432",9,10,11,12,9,2722,824,0,-1,"a.sham",3,"no_press",0,"NGL","noGo",1,172,3,1,"lose","Avoid","lose","no_press",0,NA,"no_press",0
"42",182,"AAAA0432",9,10,11,12,9,2810,938,0,0,"a.sham",3,"no_press",0,"NGL","noGo",1,182,3,2,"neutral","Avoid",NA,"no_press",1,"no_press","no_press",0
"43",185,"AAAA0432",9,10,11,12,9,3042,635,0,0,"a.sham",3,"no_press",0,"NGL","noGo",1,185,3,3,"neutral","Avoid",NA,"no_press",1,"no_press","no_press",0
"44",188,"AAAA0432",9,10,11,12,9,1996,561,0,0,"a.sham",3,"no_press",0,"NGL","noGo",1,188,3,4,"neutral","Avoid",NA,"no_press",1,"no_press","no_press",0
"45",190,"AAAA0432",9,10,11,12,9,2475,663,0,0,"a.sham",3,"no_press",0,"NGL","noGo",1,190,3,5,"neutral","Avoid",NA,"no_press",1,"no_press","no_press",0
"46",191,"AAAA0432",9,10,11,12,9,1804,625,0,0,"a.sham",3,"no_press",0,"NGL","noGo",1,191,3,6,"neutral","Avoid",NA,"no_press",1,"no_press","no_press",0
"47",196,"AAAA0432",9,10,11,12,9,1000,858,0,0,"a.sham",3,"no_press",0,"NGL","noGo",1,196,3,7,"neutral","Avoid",NA,"no_press",1,"no_press","no_press",0
"48",197,"AAAA0432",9,10,11,12,9,1693,633,0,0,"a.sham",3,"no_press",0,"NGL","noGo",1,197,3,8,"neutral","Avoid",NA,"no_press",1,"no_press","no_press",0
"49",199,"AAAA0432",9,10,11,12,9,1892,672,0,0,"a.sham",3,"no_press",0,"NGL","noGo",1,199,3,9,"neutral","Avoid",NA,"no_press",1,"no_press","no_press",0
"50",201,"AAAA0432",9,10,11,12,9,1402,876,0,0,"a.sham",3,"no_press",0,"NGL","noGo",1,201,3,10,"neutral","Avoid",NA,"no_press",1,"no_press","no_press",0
"51",204,"AAAA0432",9,10,11,12,9,1962,733,0,0,"a.sham",3,"no_press",0,"NGL","noGo",1,204,3,11,"neutral","Avoid",NA,"no_press",1,"no_press","no_press",0
"52",207,"AAAA0432",9,10,11,12,9,1722,945,0,-1,"a.sham",3,"no_press",0,"NGL","noGo",1,207,3,12,"lose","Avoid","lose","no_press",0,NA,"no_press",0
"53",211,"AAAA0432",9,10,11,12,9,1446,704,0,0,"a.sham",3,"no_press",0,"NGL","noGo",1,211,3,13,"neutral","Avoid",NA,"no_press",1,"no_press","no_press",0
"54",219,"AAAA0432",9,10,11,12,9,2596,932,0,0,"a.sham",3,"no_press",0,"NGL","noGo",1,219,3,14,"neutral","Avoid",NA,"no_press",1,"no_press","no_press",0
"55",226,"AAAA0432",9,10,11,12,9,1486,670,0,0,"a.sham",3,"no_press",0,"NGL","noGo",1,226,3,15,"neutral","Avoid",NA,"no_press",1,"no_press","no_press",0
"56",228,"AAAA0432",9,10,11,12,9,1559,515,0,0,"a.sham",3,"no_press",0,"NGL","noGo",1,228,3,16,"neutral","Avoid",NA,"no_press",1,"no_press","no_press",0
"57",229,"AAAA0432",9,10,11,12,9,2297,707,0,-1,"a.sham",3,"no_press",0,"NGL","noGo",1,229,3,17,"lose","Avoid","lose","no_press",0,NA,"no_press",0
"58",231,"AAAA0432",9,10,11,12,9,2671,810,0,0,"a.sham",3,"no_press",0,"NGL","noGo",1,231,3,18,"neutral","Avoid",NA,"no_press",1,"no_press","no_press",0
"59",232,"AAAA0432",9,10,11,12,9,2393,526,0,0,"a.sham",3,"no_press",0,"NGL","noGo",1,232,3,19,"neutral","Avoid",NA,"no_press",1,"no_press","no_press",0
"60",235,"AAAA0432",9,10,11,12,9,3211,534,0,0,"a.sham",3,"no_press",0,"NGL","noGo",1,235,3,20,"neutral","Avoid",NA,"press",1,"press",NA,NA
"61",244,"AAAA0432",13,16,15,14,13,1596,521,984,-1,"a.sham",3,"press",1,"NGL","noGo",0,244,4,1,"lose","Avoid","lose","press",1,"press","press",1
"62",246,"AAAA0432",13,16,15,14,13,1155,586,1169,-1,"a.sham",3,"press",1,"NGL","noGo",0,246,4,2,"lose","Avoid","lose","no_press",1,"no_press","no_press",0
"63",249,"AAAA0432",13,16,15,14,13,1000,602,0,0,"a.sham",3,"no_press",0,"NGL","noGo",1,249,4,3,"neutral","Avoid",NA,"no_press",1,"no_press","no_press",0
"64",254,"AAAA0432",13,16,15,14,13,2969,693,0,0,"a.sham",3,"no_press",0,"NGL","noGo",1,254,4,4,"neutral","Avoid",NA,"no_press",1,"no_press","no_press",0
"65",255,"AAAA0432",13,16,15,14,13,1430,793,0,-1,"a.sham",3,"no_press",0,"NGL","noGo",1,255,4,5,"lose","Avoid","lose","no_press",0,NA,"no_press",0
"66",256,"AAAA0432",13,16,15,14,13,1765,644,0,0,"a.sham",3,"no_press",0,"NGL","noGo",1,256,4,6,"neutral","Avoid",NA,"no_press",1,"no_press","no_press",0
"67",258,"AAAA0432",13,16,15,14,13,2085,946,0,0,"a.sham",3,"no_press",0,"NGL","noGo",1,258,4,7,"neutral","Avoid",NA,"no_press",1,"no_press","no_press",0
"68",259,"AAAA0432",13,16,15,14,13,2211,983,0,0,"a.sham",3,"no_press",0,"NGL","noGo",1,259,4,8,"neutral","Avoid",NA,"no_press",1,"no_press","no_press",0
"69",266,"AAAA0432",13,16,15,14,13,1652,695,0,0,"a.sham",3,"no_press",0,"NGL","noGo",1,266,4,9,"neutral","Avoid",NA,"no_press",1,"no_press","no_press",0
"70",269,"AAAA0432",13,16,15,14,13,1915,660,0,0,"a.sham",3,"no_press",0,"NGL","noGo",1,269,4,10,"neutral","Avoid",NA,"no_press",1,"no_press","no_press",0
"71",270,"AAAA0432",13,16,15,14,13,2737,569,0,-1,"a.sham",3,"no_press",0,"NGL","noGo",1,270,4,11,"lose","Avoid","lose","no_press",0,NA,"no_press",0
"72",277,"AAAA0432",13,16,15,14,13,1000,509,0,0,"a.sham",3,"no_press",0,"NGL","noGo",1,277,4,12,"neutral","Avoid",NA,"no_press",1,"no_press","no_press",0
"73",278,"AAAA0432",13,16,15,14,13,1668,602,0,-1,"a.sham",3,"no_press",0,"NGL","noGo",1,278,4,13,"lose","Avoid","lose","no_press",0,NA,"no_press",0
"74",280,"AAAA0432",13,16,15,14,13,1550,847,0,0,"a.sham",3,"no_press",0,"NGL","noGo",1,280,4,14,"neutral","Avoid",NA,"no_press",1,"no_press","no_press",0
"75",288,"AAAA0432",13,16,15,14,13,2394,758,0,0,"a.sham",3,"no_press",0,"NGL","noGo",1,288,4,15,"neutral","Avoid",NA,"no_press",1,"no_press","no_press",0
"76",291,"AAAA0432",13,16,15,14,13,1468,760,0,0,"a.sham",3,"no_press",0,"NGL","noGo",1,291,4,16,"neutral","Avoid",NA,"no_press",1,"no_press","no_press",0
"77",293,"AAAA0432",13,16,15,14,13,1918,862,0,0,"a.sham",3,"no_press",0,"NGL","noGo",1,293,4,17,"neutral","Avoid",NA,"no_press",1,"no_press","no_press",0
"78",295,"AAAA0432",13,16,15,14,13,1809,828,0,0,"a.sham",3,"no_press",0,"NGL","noGo",1,295,4,18,"neutral","Avoid",NA,"no_press",1,"no_press","no_press",0
"79",304,"AAAA0432",13,16,15,14,13,2439,734,0,0,"a.sham",3,"no_press",0,"NGL","noGo",1,304,4,19,"neutral","Avoid",NA,"no_press",1,"no_press","no_press",0
"80",320,"AAAA0432",13,16,15,14,13,2284,574,0,0,"a.sham",3,"no_press",0,"NGL","noGo",1,320,4,20,"neutral","Avoid",NA,NA,1,NA,NA,NA
"81",330,"BNVN0020",3,4,1,2,3,1326,561,751,-1,"a.sham",1,"press",1,"NGL","noGo",0,10,1,1,"lose","Avoid","lose","press",1,"press","press",1
"82",332,"BNVN0020",3,4,1,2,3,1690,763,469,-1,"a.sham",1,"press",1,"NGL","noGo",0,12,1,2,"lose","Avoid","lose","press",1,"press","press",1
"83",333,"BNVN0020",3,4,1,2,3,2930,914,681,-1,"a.sham",1,"press",1,"NGL","noGo",0,13,1,3,"lose","Avoid","lose","no_press",1,"no_press","no_press",0
"84",336,"BNVN0020",3,4,1,2,3,2547,691,0,0,"a.sham",1,"no_press",0,"NGL","noGo",1,16,1,4,"neutral","Avoid",NA,"no_press",1,"no_press","no_press",0
"85",337,"BNVN0020",3,4,1,2,3,2149,778,0,0,"a.sham",1,"no_press",0,"NGL","noGo",1,17,1,5,"neutral","Avoid",NA,"no_press",1,"no_press","no_press",0
"86",349,"BNVN0020",3,4,1,2,3,1458,862,0,0,"a.sham",1,"no_press",0,"NGL","noGo",1,29,1,6,"neutral","Avoid",NA,"no_press",1,"no_press","no_press",0
"87",353,"BNVN0020",3,4,1,2,3,1784,641,0,0,"a.sham",1,"no_press",0,"NGL","noGo",1,33,1,7,"neutral","Avoid",NA,"no_press",1,"no_press","no_press",0
"88",354,"BNVN0020",3,4,1,2,3,1484,895,0,-1,"a.sham",1,"no_press",0,"NGL","noGo",1,34,1,8,"lose","Avoid","lose","press",0,NA,"press",1
"89",358,"BNVN0020",3,4,1,2,3,2663,737,1238,-1,"a.sham",1,"press",1,"NGL","noGo",0,38,1,9,"lose","Avoid","lose","no_press",1,"no_press","no_press",0
"90",362,"BNVN0020",3,4,1,2,3,2318,546,0,-1,"a.sham",1,"no_press",0,"NGL","noGo",1,42,1,10,"lose","Avoid","lose","press",0,NA,"press",1
"91",363,"BNVN0020",3,4,1,2,3,1752,758,657,-1,"a.sham",1,"press",1,"NGL","noGo",0,43,1,11,"lose","Avoid","lose","press",1,"press","press",1
"92",368,"BNVN0020",3,4,1,2,3,1842,645,1055,0,"a.sham",1,"press",1,"NGL","noGo",0,48,1,12,"neutral","Avoid",NA,"press",0,NA,"press",1
"93",369,"BNVN0020",3,4,1,2,3,2349,798,519,-1,"a.sham",1,"press",1,"NGL","noGo",0,49,1,13,"lose","Avoid","lose","no_press",1,"no_press","no_press",0
"94",371,"BNVN0020",3,4,1,2,3,2131,692,0,0,"a.sham",1,"no_press",0,"NGL","noGo",1,51,1,14,"neutral","Avoid",NA,"no_press",1,"no_press","no_press",0
"95",372,"BNVN0020",3,4,1,2,3,2008,861,0,0,"a.sham",1,"no_press",0,"NGL","noGo",1,52,1,15,"neutral","Avoid",NA,"no_press",1,"no_press","no_press",0
"96",376,"BNVN0020",3,4,1,2,3,1597,602,0,0,"a.sham",1,"no_press",0,"NGL","noGo",1,56,1,16,"neutral","Avoid",NA,"no_press",1,"no_press","no_press",0
"97",381,"BNVN0020",3,4,1,2,3,1559,632,0,0,"a.sham",1,"no_press",0,"NGL","noGo",1,61,1,17,"neutral","Avoid",NA,"no_press",1,"no_press","no_press",0
"98",387,"BNVN0020",3,4,1,2,3,3029,748,0,0,"a.sham",1,"no_press",0,"NGL","noGo",1,67,1,18,"neutral","Avoid",NA,"no_press",1,"no_press","no_press",0
"99",389,"BNVN0020",3,4,1,2,3,2029,839,0,0,"a.sham",1,"no_press",0,"NGL","noGo",1,69,1,19,"neutral","Avoid",NA,"no_press",1,"no_press","no_press",0
"100",400,"BNVN0020",3,4,1,2,3,1883,502,0,-1,"a.sham",1,"no_press",0,"NGL","noGo",1,80,1,20,"lose","Avoid","lose","press",0,NA,NA,NA
"101",402,"BNVN0020",5,6,7,8,5,1456,711,812,-1,"a.sham",1,"press",1,"NGL","noGo",0,82,2,1,"lose","Avoid","lose","no_press",1,"no_press","no_press",0
"102",404,"BNVN0020",5,6,7,8,5,1505,945,0,0,"a.sham",1,"no_press",0,"NGL","noGo",1,84,2,2,"neutral","Avoid",NA,"no_press",1,"no_press","no_press",0
"103",407,"BNVN0020",5,6,7,8,5,2018,879,0,0,"a.sham",1,"no_press",0,"NGL","noGo",1,87,2,3,"neutral","Avoid",NA,"no_press",1,"no_press","no_press",0
"104",409,"BNVN0020",5,6,7,8,5,2143,942,0,0,"a.sham",1,"no_press",0,"NGL","noGo",1,89,2,4,"neutral","Avoid",NA,"no_press",1,"no_press","no_press",0
"105",411,"BNVN0020",5,6,7,8,5,1963,892,0,0,"a.sham",1,"no_press",0,"NGL","noGo",1,91,2,5,"neutral","Avoid",NA,"no_press",1,"no_press","no_press",0
"106",415,"BNVN0020",5,6,7,8,5,1671,969,0,0,"a.sham",1,"no_press",0,"NGL","noGo",1,95,2,6,"neutral","Avoid",NA,"no_press",1,"no_press","no_press",0
"107",425,"BNVN0020",5,6,7,8,5,1000,713,0,0,"a.sham",1,"no_press",0,"NGL","noGo",1,105,2,7,"neutral","Avoid",NA,"no_press",1,"no_press","no_press",0
"108",427,"BNVN0020",5,6,7,8,5,1453,818,0,0,"a.sham",1,"no_press",0,"NGL","noGo",1,107,2,8,"neutral","Avoid",NA,"no_press",1,"no_press","no_press",0
"109",429,"BNVN0020",5,6,7,8,5,1504,564,0,0,"a.sham",1,"no_press",0,"NGL","noGo",1,109,2,9,"neutral","Avoid",NA,"no_press",1,"no_press","no_press",0
"110",431,"BNVN0020",5,6,7,8,5,2964,500,0,0,"a.sham",1,"no_press",0,"NGL","noGo",1,111,2,10,"neutral","Avoid",NA,"no_press",1,"no_press","no_press",0
"111",433,"BNVN0020",5,6,7,8,5,2724,596,0,0,"a.sham",1,"no_press",0,"NGL","noGo",1,113,2,11,"neutral","Avoid",NA,"no_press",1,"no_press","no_press",0
"112",434,"BNVN0020",5,6,7,8,5,1921,850,0,0,"a.sham",1,"no_press",0,"NGL","noGo",1,114,2,12,"neutral","Avoid",NA,"press",1,"press","press",1
"113",435,"BNVN0020",5,6,7,8,5,1622,524,1015,-1,"a.sham",1,"press",1,"NGL","noGo",0,115,2,13,"lose","Avoid","lose","no_press",1,"no_press","no_press",0
"114",437,"BNVN0020",5,6,7,8,5,1575,977,0,-1,"a.sham",1,"no_press",0,"NGL","noGo",1,117,2,14,"lose","Avoid","lose","no_press",0,NA,"no_press",0
"115",451,"BNVN0020",5,6,7,8,5,2036,701,0,-1,"a.sham",1,"no_press",0,"NGL","noGo",1,131,2,15,"lose","Avoid","lose","no_press",0,NA,"no_press",0
"116",456,"BNVN0020",5,6,7,8,5,2171,651,0,0,"a.sham",1,"no_press",0,"NGL","noGo",1,136,2,16,"neutral","Avoid",NA,"no_press",1,"no_press","no_press",0
"117",459,"BNVN0020",5,6,7,8,5,2415,626,0,0,"a.sham",1,"no_press",0,"NGL","noGo",1,139,2,17,"neutral","Avoid",NA,"no_press",1,"no_press","no_press",0
"118",462,"BNVN0020",5,6,7,8,5,1281,530,0,0,"a.sham",1,"no_press",0,"NGL","noGo",1,142,2,18,"neutral","Avoid",NA,"no_press",1,"no_press","no_press",0
"119",479,"BNVN0020",5,6,7,8,5,2099,880,0,0,"a.sham",1,"no_press",0,"NGL","noGo",1,159,2,19,"neutral","Avoid",NA,"no_press",1,"no_press","no_press",0
"120",480,"BNVN0020",5,6,7,8,5,1518,818,0,-1,"a.sham",1,"no_press",0,"NGL","noGo",1,160,2,20,"lose","Avoid","lose","no_press",0,NA,NA,NA
"121",483,"BNVN0020",9,10,11,12,9,2478,530,0,0,"a.sham",1,"no_press",0,"NGL","noGo",1,163,3,1,"neutral","Avoid",NA,"no_press",1,"no_press","no_press",0
"122",485,"BNVN0020",9,10,11,12,9,2045,958,0,0,"a.sham",1,"no_press",0,"NGL","noGo",1,165,3,2,"neutral","Avoid",NA,"no_press",1,"no_press","no_press",0
"123",491,"BNVN0020",9,10,11,12,9,1717,781,0,0,"a.sham",1,"no_press",0,"NGL","noGo",1,171,3,3,"neutral","Avoid",NA,"no_press",1,"no_press","no_press",0
"124",492,"BNVN0020",9,10,11,12,9,1304,822,0,0,"a.sham",1,"no_press",0,"NGL","noGo",1,172,3,4,"neutral","Avoid",NA,"no_press",1,"no_press","no_press",0
"125",502,"BNVN0020",9,10,11,12,9,1615,939,0,0,"a.sham",1,"no_press",0,"NGL","noGo",1,182,3,5,"neutral","Avoid",NA,"no_press",1,"no_press","no_press",0
"126",507,"BNVN0020",9,10,11,12,9,2336,656,0,0,"a.sham",1,"no_press",0,"NGL","noGo",1,187,3,6,"neutral","Avoid",NA,"no_press",1,"no_press","no_press",0
"127",508,"BNVN0020",9,10,11,12,9,1565,978,0,-1,"a.sham",1,"no_press",0,"NGL","noGo",1,188,3,7,"lose","Avoid","lose","no_press",0,NA,"no_press",0
"128",509,"BNVN0020",9,10,11,12,9,1678,817,0,0,"a.sham",1,"no_press",0,"NGL","noGo",1,189,3,8,"neutral","Avoid",NA,"no_press",1,"no_press","no_press",0
"129",513,"BNVN0020",9,10,11,12,9,1937,951,0,0,"a.sham",1,"no_press",0,"NGL","noGo",1,193,3,9,"neutral","Avoid",NA,"no_press",1,"no_press","no_press",0
"130",535,"BNVN0020",9,10,11,12,9,1761,628,0,-1,"a.sham",1,"no_press",0,"NGL","noGo",1,215,3,10,"lose","Avoid","lose","press",0,NA,"press",1
"131",536,"BNVN0020",9,10,11,12,9,2010,759,674,-1,"a.sham",1,"press",1,"NGL","noGo",0,216,3,11,"lose","Avoid","lose","press",1,"press","press",1
"132",541,"BNVN0020",9,10,11,12,9,2330,748,759,-1,"a.sham",1,"press",1,"NGL","noGo",0,221,3,12,"lose","Avoid","lose","no_press",1,"no_press","no_press",0
"133",542,"BNVN0020",9,10,11,12,9,2601,935,0,-1,"a.sham",1,"no_press",0,"NGL","noGo",1,222,3,13,"lose","Avoid","lose","press",0,NA,"press",1
"134",545,"BNVN0020",9,10,11,12,9,1509,648,646,-1,"a.sham",1,"press",1,"NGL","noGo",0,225,3,14,"lose","Avoid","lose","no_press",1,"no_press","no_press",0
"135",548,"BNVN0020",9,10,11,12,9,1547,585,0,0,"a.sham",1,"no_press",0,"NGL","noGo",1,228,3,15,"neutral","Avoid",NA,"no_press",1,"no_press","no_press",0
"136",549,"BNVN0020",9,10,11,12,9,2315,774,0,0,"a.sham",1,"no_press",0,"NGL","noGo",1,229,3,16,"neutral","Avoid",NA,"no_press",1,"no_press","no_press",0
"137",550,"BNVN0020",9,10,11,12,9,2164,622,0,0,"a.sham",1,"no_press",0,"NGL","noGo",1,230,3,17,"neutral","Avoid",NA,"no_press",1,"no_press","no_press",0
"138",554,"BNVN0020",9,10,11,12,9,3276,640,0,0,"a.sham",1,"no_press",0,"NGL","noGo",1,234,3,18,"neutral","Avoid",NA,"no_press",1,"no_press","no_press",0
"139",555,"BNVN0020",9,10,11,12,9,2298,671,0,0,"a.sham",1,"no_press",0,"NGL","noGo",1,235,3,19,"neutral","Avoid",NA,"no_press",1,"no_press","no_press",0
"140",558,"BNVN0020",9,10,11,12,9,1932,656,0,0,"a.sham",1,"no_press",0,"NGL","noGo",1,238,3,20,"neutral","Avoid",NA,"press",1,"press",NA,NA
"141",565,"BNVN0020",15,16,13,14,15,1474,840,1089,-1,"a.sham",1,"press",1,"NGL","noGo",0,245,4,1,"lose","Avoid","lose","no_press",1,"no_press","no_press",0
"142",566,"BNVN0020",15,16,13,14,15,2776,515,0,0,"a.sham",1,"no_press",0,"NGL","noGo",1,246,4,2,"neutral","Avoid",NA,"no_press",1,"no_press","no_press",0
"143",572,"BNVN0020",15,16,13,14,15,1965,629,0,0,"a.sham",1,"no_press",0,"NGL","noGo",1,252,4,3,"neutral","Avoid",NA,"no_press",1,"no_press","no_press",0
"144",574,"BNVN0020",15,16,13,14,15,2291,863,0,0,"a.sham",1,"no_press",0,"NGL","noGo",1,254,4,4,"neutral","Avoid",NA,"no_press",1,"no_press","no_press",0
"145",575,"BNVN0020",15,16,13,14,15,2169,664,0,0,"a.sham",1,"no_press",0,"NGL","noGo",1,255,4,5,"neutral","Avoid",NA,"no_press",1,"no_press","no_press",0
"146",576,"BNVN0020",15,16,13,14,15,2019,609,0,0,"a.sham",1,"no_press",0,"NGL","noGo",1,256,4,6,"neutral","Avoid",NA,"no_press",1,"no_press","no_press",0
"147",579,"BNVN0020",15,16,13,14,15,1772,645,0,0,"a.sham",1,"no_press",0,"NGL","noGo",1,259,4,7,"neutral","Avoid",NA,"no_press",1,"no_press","no_press",0
"148",581,"BNVN0020",15,16,13,14,15,2084,570,0,0,"a.sham",1,"no_press",0,"NGL","noGo",1,261,4,8,"neutral","Avoid",NA,"no_press",1,"no_press","no_press",0
"149",587,"BNVN0020",15,16,13,14,15,2348,591,0,0,"a.sham",1,"no_press",0,"NGL","noGo",1,267,4,9,"neutral","Avoid",NA,"no_press",1,"no_press","no_press",0
"150",590,"BNVN0020",15,16,13,14,15,2237,541,0,-1,"a.sham",1,"no_press",0,"NGL","noGo",1,270,4,10,"lose","Avoid","lose","no_press",0,NA,"no_press",0
"151",593,"BNVN0020",15,16,13,14,15,1861,748,0,0,"a.sham",1,"no_press",0,"NGL","noGo",1,273,4,11,"neutral","Avoid",NA,"no_press",1,"no_press","no_press",0
"152",596,"BNVN0020",15,16,13,14,15,2319,797,0,0,"a.sham",1,"no_press",0,"NGL","noGo",1,276,4,12,"neutral","Avoid",NA,"no_press",1,"no_press","no_press",0
"153",598,"BNVN0020",15,16,13,14,15,2227,989,0,0,"a.sham",1,"no_press",0,"NGL","noGo",1,278,4,13,"neutral","Avoid",NA,"no_press",1,"no_press","no_press",0
"154",602,"BNVN0020",15,16,13,14,15,2277,902,0,0,"a.sham",1,"no_press",0,"NGL","noGo",1,282,4,14,"neutral","Avoid",NA,"no_press",1,"no_press","no_press",0
"155",603,"BNVN0020",15,16,13,14,15,1240,943,0,-1,"a.sham",1,"no_press",0,"NGL","noGo",1,283,4,15,"lose","Avoid","lose","no_press",0,NA,"no_press",0
"156",611,"BNVN0020",15,16,13,14,15,2195,614,0,-1,"a.sham",1,"no_press",0,"NGL","noGo",1,291,4,16,"lose","Avoid","lose","no_press",0,NA,"no_press",0
"157",615,"BNVN0020",15,16,13,14,15,1462,770,0,0,"a.sham",1,"no_press",0,"NGL","noGo",1,295,4,17,"neutral","Avoid",NA,"no_press",1,"no_press","no_press",0
"158",622,"BNVN0020",15,16,13,14,15,2234,740,0,-1,"a.sham",1,"no_press",0,"NGL","noGo",1,302,4,18,"lose","Avoid","lose","no_press",0,NA,"no_press",0
"159",628,"BNVN0020",15,16,13,14,15,2080,843,0,0,"a.sham",1,"no_press",0,"NGL","noGo",1,308,4,19,"neutral","Avoid",NA,"no_press",1,"no_press","no_press",0
"160",631,"BNVN0020",15,16,13,14,15,1615,728,0,0,"a.sham",1,"no_press",0,"NGL","noGo",1,311,4,20,"neutral","Avoid",NA,NA,1,NA,NA,NA
"161",641,"DIVL0216",1,2,3,4,1,1676,517,0,0,"a.sham",3,"no_press",0,"NGL","noGo",1,1,1,1,"neutral","Avoid",NA,"press",1,"press","press",1
"162",644,"DIVL0216",1,2,3,4,1,1486,962,970,-1,"a.sham",3,"press",1,"NGL","noGo",0,4,1,2,"lose","Avoid","lose","press",1,"press","press",1
"163",657,"DIVL0216",1,2,3,4,1,1616,700,668,-1,"a.sham",3,"press",1,"NGL","noGo",0,17,1,3,"lose","Avoid","lose","no_press",1,"no_press","no_press",0
"164",660,"DIVL0216",1,2,3,4,1,1989,750,0,0,"a.sham",3,"no_press",0,"NGL","noGo",1,20,1,4,"neutral","Avoid",NA,"no_press",1,"no_press","no_press",0
"165",670,"DIVL0216",1,2,3,4,1,2964,782,0,0,"a.sham",3,"no_press",0,"NGL","noGo",1,30,1,5,"neutral","Avoid",NA,"no_press",1,"no_press","no_press",0
"166",671,"DIVL0216",1,2,3,4,1,3377,632,0,0,"a.sham",3,"no_press",0,"NGL","noGo",1,31,1,6,"neutral","Avoid",NA,"no_press",1,"no_press","no_press",0
"167",678,"DIVL0216",1,2,3,4,1,2172,989,0,0,"a.sham",3,"no_press",0,"NGL","noGo",1,38,1,7,"neutral","Avoid",NA,"no_press",1,"no_press","no_press",0
"168",679,"DIVL0216",1,2,3,4,1,2308,977,0,0,"a.sham",3,"no_press",0,"NGL","noGo",1,39,1,8,"neutral","Avoid",NA,"no_press",1,"no_press","no_press",0
"169",684,"DIVL0216",1,2,3,4,1,2307,610,0,0,"a.sham",3,"no_press",0,"NGL","noGo",1,44,1,9,"neutral","Avoid",NA,"no_press",1,"no_press","no_press",0
"170",688,"DIVL0216",1,2,3,4,1,1596,948,0,0,"a.sham",3,"no_press",0,"NGL","noGo",1,48,1,10,"neutral","Avoid",NA,"no_press",1,"no_press","no_press",0
"171",692,"DIVL0216",1,2,3,4,1,1155,530,0,-1,"a.sham",3,"no_press",0,"NGL","noGo",1,52,1,11,"lose","Avoid","lose","no_press",0,NA,"no_press",0
"172",693,"DIVL0216",1,2,3,4,1,2314,611,0,0,"a.sham",3,"no_press",0,"NGL","noGo",1,53,1,12,"neutral","Avoid",NA,"no_press",1,"no_press","no_press",0
"173",694,"DIVL0216",1,2,3,4,1,1803,612,0,-1,"a.sham",3,"no_press",0,"NGL","noGo",1,54,1,13,"lose","Avoid","lose","no_press",0,NA,"no_press",0
"174",697,"DIVL0216",1,2,3,4,1,1491,567,0,0,"a.sham",3,"no_press",0,"NGL","noGo",1,57,1,14,"neutral","Avoid",NA,"no_press",1,"no_press","no_press",0
"175",698,"DIVL0216",1,2,3,4,1,2428,892,0,0,"a.sham",3,"no_press",0,"NGL","noGo",1,58,1,15,"neutral","Avoid",NA,"no_press",1,"no_press","no_press",0
"176",699,"DIVL0216",1,2,3,4,1,1996,741,0,0,"a.sham",3,"no_press",0,"NGL","noGo",1,59,1,16,"neutral","Avoid",NA,"no_press",1,"no_press","no_press",0
"177",700,"DIVL0216",1,2,3,4,1,1000,753,0,0,"a.sham",3,"no_press",0,"NGL","noGo",1,60,1,17,"neutral","Avoid",NA,"no_press",1,"no_press","no_press",0
"178",707,"DIVL0216",1,2,3,4,1,1498,890,0,-1,"a.sham",3,"no_press",0,"NGL","noGo",1,67,1,18,"lose","Avoid","lose","no_press",0,NA,"no_press",0
"179",713,"DIVL0216",1,2,3,4,1,1681,712,0,0,"a.sham",3,"no_press",0,"NGL","noGo",1,73,1,19,"neutral","Avoid",NA,"no_press",1,"no_press","no_press",0
"180",717,"DIVL0216",1,2,3,4,1,1000,930,0,0,"a.sham",3,"no_press",0,"NGL","noGo",1,77,1,20,"neutral","Avoid",NA,"no_press",1,"no_press",NA,NA
"181",723,"DIVL0216",5,6,7,8,5,1402,601,0,0,"a.sham",3,"no_press",0,"NGL","noGo",1,83,2,1,"neutral","Avoid",NA,"no_press",1,"no_press","no_press",0
"182",731,"DIVL0216",5,6,7,8,5,1657,803,0,0,"a.sham",3,"no_press",0,"NGL","noGo",1,91,2,2,"neutral","Avoid",NA,"no_press",1,"no_press","no_press",0
"183",734,"DIVL0216",5,6,7,8,5,1462,841,0,0,"a.sham",3,"no_press",0,"NGL","noGo",1,94,2,3,"neutral","Avoid",NA,"no_press",1,"no_press","no_press",0
"184",735,"DIVL0216",5,6,7,8,5,2480,966,0,0,"a.sham",3,"no_press",0,"NGL","noGo",1,95,2,4,"neutral","Avoid",NA,"no_press",1,"no_press","no_press",0
"185",737,"DIVL0216",5,6,7,8,5,1838,635,0,0,"a.sham",3,"no_press",0,"NGL","noGo",1,97,2,5,"neutral","Avoid",NA,"press",1,"press","press",1
"186",741,"DIVL0216",5,6,7,8,5,1439,535,402,0,"a.sham",3,"press",1,"NGL","noGo",0,101,2,6,"neutral","Avoid",NA,"no_press",0,NA,"no_press",0
"187",745,"DIVL0216",5,6,7,8,5,1732,546,0,0,"a.sham",3,"no_press",0,"NGL","noGo",1,105,2,7,"neutral","Avoid",NA,"no_press",1,"no_press","no_press",0
"188",748,"DIVL0216",5,6,7,8,5,2103,686,0,0,"a.sham",3,"no_press",0,"NGL","noGo",1,108,2,8,"neutral","Avoid",NA,"no_press",1,"no_press","no_press",0
"189",754,"DIVL0216",5,6,7,8,5,2628,763,0,0,"a.sham",3,"no_press",0,"NGL","noGo",1,114,2,9,"neutral","Avoid",NA,"no_press",1,"no_press","no_press",0
"190",759,"DIVL0216",5,6,7,8,5,2086,739,0,0,"a.sham",3,"no_press",0,"NGL","noGo",1,119,2,10,"neutral","Avoid",NA,"no_press",1,"no_press","no_press",0
"191",762,"DIVL0216",5,6,7,8,5,1756,677,0,0,"a.sham",3,"no_press",0,"NGL","noGo",1,122,2,11,"neutral","Avoid",NA,"no_press",1,"no_press","no_press",0
"192",764,"DIVL0216",5,6,7,8,5,1321,653,0,0,"a.sham",3,"no_press",0,"NGL","noGo",1,124,2,12,"neutral","Avoid",NA,"no_press",1,"no_press","no_press",0
"193",769,"DIVL0216",5,6,7,8,5,1928,707,0,0,"a.sham",3,"no_press",0,"NGL","noGo",1,129,2,13,"neutral","Avoid",NA,"no_press",1,"no_press","no_press",0
"194",778,"DIVL0216",5,6,7,8,5,1518,850,0,0,"a.sham",3,"no_press",0,"NGL","noGo",1,138,2,14,"neutral","Avoid",NA,"no_press",1,"no_press","no_press",0
"195",779,"DIVL0216",5,6,7,8,5,1747,983,0,0,"a.sham",3,"no_press",0,"NGL","noGo",1,139,2,15,"neutral","Avoid",NA,"no_press",1,"no_press","no_press",0
"196",780,"DIVL0216",5,6,7,8,5,1823,888,0,0,"a.sham",3,"no_press",0,"NGL","noGo",1,140,2,16,"neutral","Avoid",NA,"no_press",1,"no_press","no_press",0
"197",785,"DIVL0216",5,6,7,8,5,2353,853,0,0,"a.sham",3,"no_press",0,"NGL","noGo",1,145,2,17,"neutral","Avoid",NA,"no_press",1,"no_press","no_press",0
"198",791,"DIVL0216",5,6,7,8,5,1948,847,0,-1,"a.sham",3,"no_press",0,"NGL","noGo",1,151,2,18,"lose","Avoid","lose","no_press",0,NA,"no_press",0
"199",796,"DIVL0216",5,6,7,8,5,1657,966,0,-1,"a.sham",3,"no_press",0,"NGL","noGo",1,156,2,19,"lose","Avoid","lose","no_press",0,NA,"no_press",0
"200",800,"DIVL0216",5,6,7,8,5,1430,971,0,0,"a.sham",3,"no_press",0,"NGL","noGo",1,160,2,20,"neutral","Avoid",NA,"no_press",1,"no_press",NA,NA
"201",801,"DIVL0216",9,12,11,10,9,1573,750,0,0,"a.sham",3,"no_press",0,"NGL","noGo",1,161,3,1,"neutral","Avoid",NA,"press",1,"press","press",1
"202",802,"DIVL0216",9,12,11,10,9,2135,900,891,-1,"a.sham",3,"press",1,"NGL","noGo",0,162,3,2,"lose","Avoid","lose","no_press",1,"no_press","no_press",0
"203",804,"DIVL0216",9,12,11,10,9,1995,583,0,0,"a.sham",3,"no_press",0,"NGL","noGo",1,164,3,3,"neutral","Avoid",NA,"no_press",1,"no_press","no_press",0
"204",805,"DIVL0216",9,12,11,10,9,2247,820,0,-1,"a.sham",3,"no_press",0,"NGL","noGo",1,165,3,4,"lose","Avoid","lose","no_press",0,NA,"no_press",0
"205",811,"DIVL0216",9,12,11,10,9,1832,846,0,0,"a.sham",3,"no_press",0,"NGL","noGo",1,171,3,5,"neutral","Avoid",NA,"no_press",1,"no_press","no_press",0
"206",813,"DIVL0216",9,12,11,10,9,2533,822,0,0,"a.sham",3,"no_press",0,"NGL","noGo",1,173,3,6,"neutral","Avoid",NA,"no_press",1,"no_press","no_press",0
"207",818,"DIVL0216",9,12,11,10,9,1368,975,0,0,"a.sham",3,"no_press",0,"NGL","noGo",1,178,3,7,"neutral","Avoid",NA,"no_press",1,"no_press","no_press",0
"208",820,"DIVL0216",9,12,11,10,9,1559,811,0,0,"a.sham",3,"no_press",0,"NGL","noGo",1,180,3,8,"neutral","Avoid",NA,"no_press",1,"no_press","no_press",0
"209",821,"DIVL0216",9,12,11,10,9,2256,619,0,0,"a.sham",3,"no_press",0,"NGL","noGo",1,181,3,9,"neutral","Avoid",NA,"no_press",1,"no_press","no_press",0
"210",834,"DIVL0216",9,12,11,10,9,1513,835,0,-1,"a.sham",3,"no_press",0,"NGL","noGo",1,194,3,10,"lose","Avoid","lose","no_press",0,NA,"no_press",0
"211",839,"DIVL0216",9,12,11,10,9,1804,762,0,0,"a.sham",3,"no_press",0,"NGL","noGo",1,199,3,11,"neutral","Avoid",NA,"no_press",1,"no_press","no_press",0
"212",841,"DIVL0216",9,12,11,10,9,1367,929,0,0,"a.sham",3,"no_press",0,"NGL","noGo",1,201,3,12,"neutral","Avoid",NA,"no_press",1,"no_press","no_press",0
"213",849,"DIVL0216",9,12,11,10,9,2300,979,0,0,"a.sham",3,"no_press",0,"NGL","noGo",1,209,3,13,"neutral","Avoid",NA,"no_press",1,"no_press","no_press",0
"214",852,"DIVL0216",9,12,11,10,9,1929,602,0,0,"a.sham",3,"no_press",0,"NGL","noGo",1,212,3,14,"neutral","Avoid",NA,"no_press",1,"no_press","no_press",0
"215",854,"DIVL0216",9,12,11,10,9,2164,681,0,0,"a.sham",3,"no_press",0,"NGL","noGo",1,214,3,15,"neutral","Avoid",NA,"no_press",1,"no_press","no_press",0
"216",858,"DIVL0216",9,12,11,10,9,1892,763,0,0,"a.sham",3,"no_press",0,"NGL","noGo",1,218,3,16,"neutral","Avoid",NA,"no_press",1,"no_press","no_press",0
"217",860,"DIVL0216",9,12,11,10,9,2297,884,0,0,"a.sham",3,"no_press",0,"NGL","noGo",1,220,3,17,"neutral","Avoid",NA,"no_press",1,"no_press","no_press",0
"218",869,"DIVL0216",9,12,11,10,9,1933,747,0,0,"a.sham",3,"no_press",0,"NGL","noGo",1,229,3,18,"neutral","Avoid",NA,"no_press",1,"no_press","no_press",0
"219",876,"DIVL0216",9,12,11,10,9,2527,907,0,-1,"a.sham",3,"no_press",0,"NGL","noGo",1,236,3,19,"lose","Avoid","lose","no_press",0,NA,"no_press",0
"220",879,"DIVL0216",9,12,11,10,9,2134,801,0,0,"a.sham",3,"no_press",0,"NGL","noGo",1,239,3,20,"neutral","Avoid",NA,"press",1,"press",NA,NA
"221",882,"DIVL0216",15,14,13,16,15,1965,869,540,-1,"a.sham",3,"press",1,"NGL","noGo",0,242,4,1,"lose","Avoid","lose","no_press",1,"no_press","no_press",0
"222",884,"DIVL0216",15,14,13,16,15,1925,693,0,0,"a.sham",3,"no_press",0,"NGL","noGo",1,244,4,2,"neutral","Avoid",NA,"no_press",1,"no_press","no_press",0
"223",886,"DIVL0216",15,14,13,16,15,2284,702,0,0,"a.sham",3,"no_press",0,"NGL","noGo",1,246,4,3,"neutral","Avoid",NA,"no_press",1,"no_press","no_press",0
"224",887,"DIVL0216",15,14,13,16,15,1996,791,0,0,"a.sham",3,"no_press",0,"NGL","noGo",1,247,4,4,"neutral","Avoid",NA,"no_press",1,"no_press","no_press",0
"225",888,"DIVL0216",15,14,13,16,15,2671,632,0,0,"a.sham",3,"no_press",0,"NGL","noGo",1,248,4,5,"neutral","Avoid",NA,"no_press",1,"no_press","no_press",0
"226",897,"DIVL0216",15,14,13,16,15,2115,662,0,0,"a.sham",3,"no_press",0,"NGL","noGo",1,257,4,6,"neutral","Avoid",NA,"no_press",1,"no_press","no_press",0
"227",901,"DIVL0216",15,14,13,16,15,2085,844,0,0,"a.sham",3,"no_press",0,"NGL","noGo",1,261,4,7,"neutral","Avoid",NA,"no_press",1,"no_press","no_press",0
"228",909,"DIVL0216",15,14,13,16,15,1748,933,0,-1,"a.sham",3,"no_press",0,"NGL","noGo",1,269,4,8,"lose","Avoid","lose","no_press",0,NA,"no_press",0
"229",910,"DIVL0216",15,14,13,16,15,2687,796,0,0,"a.sham",3,"no_press",0,"NGL","noGo",1,270,4,9,"neutral","Avoid",NA,"no_press",1,"no_press","no_press",0
"230",915,"DIVL0216",15,14,13,16,15,2134,755,0,0,"a.sham",3,"no_press",0,"NGL","noGo",1,275,4,10,"neutral","Avoid",NA,"no_press",1,"no_press","no_press",0
"231",921,"DIVL0216",15,14,13,16,15,2211,954,0,0,"a.sham",3,"no_press",0,"NGL","noGo",1,281,4,11,"neutral","Avoid",NA,"no_press",1,"no_press","no_press",0
"232",922,"DIVL0216",15,14,13,16,15,1563,766,0,-1,"a.sham",3,"no_press",0,"NGL","noGo",1,282,4,12,"lose","Avoid","lose","no_press",0,NA,"no_press",0
"233",924,"DIVL0216",15,14,13,16,15,2816,706,0,0,"a.sham",3,"no_press",0,"NGL","noGo",1,284,4,13,"neutral","Avoid",NA,"no_press",1,"no_press","no_press",0
"234",928,"DIVL0216",15,14,13,16,15,1744,548,0,0,"a.sham",3,"no_press",0,"NGL","noGo",1,288,4,14,"neutral","Avoid",NA,"no_press",1,"no_press","no_press",0
"235",935,"DIVL0216",15,14,13,16,15,1918,811,0,0,"a.sham",3,"no_press",0,"NGL","noGo",1,295,4,15,"neutral","Avoid",NA,"no_press",1,"no_press","no_press",0
"236",936,"DIVL0216",15,14,13,16,15,1783,930,0,0,"a.sham",3,"no_press",0,"NGL","noGo",1,296,4,16,"neutral","Avoid",NA,"no_press",1,"no_press","no_press",0
"237",937,"DIVL0216",15,14,13,16,15,1000,717,0,0,"a.sham",3,"no_press",0,"NGL","noGo",1,297,4,17,"neutral","Avoid",NA,"no_press",1,"no_press","no_press",0
"238",938,"DIVL0216",15,14,13,16,15,2184,505,0,-1,"a.sham",3,"no_press",0,"NGL","noGo",1,298,4,18,"lose","Avoid","lose","no_press",0,NA,"no_press",0
"239",941,"DIVL0216",15,14,13,16,15,1000,774,0,-1,"a.sham",3,"no_press",0,"NGL","noGo",1,301,4,19,"lose","Avoid","lose","no_press",0,NA,"no_press",0
"240",946,"DIVL0216",15,14,13,16,15,1000,534,0,0,"a.sham",3,"no_press",0,"NGL","noGo",1,306,4,20,"neutral","Avoid",NA,NA,1,NA,NA,NA
"241",966,"DNHR0900",1,4,3,2,1,1000,671,0,0,"a.sham",2,"no_press",0,"NGL","noGo",1,6,1,1,"neutral","Avoid",NA,"no_press",1,"no_press","no_press",0
"242",971,"DNHR0900",1,4,3,2,1,1279,967,0,-1,"a.sham",2,"no_press",0,"NGL","noGo",1,11,1,2,"lose","Avoid","lose","press",0,NA,"press",1
"243",978,"DNHR0900",1,4,3,2,1,1832,904,532,-1,"a.sham",2,"press",1,"NGL","noGo",0,18,1,3,"lose","Avoid","lose","press",1,"press","press",1
"244",983,"DNHR0900",1,4,3,2,1,2086,755,649,-1,"a.sham",2,"press",1,"NGL","noGo",0,23,1,4,"lose","Avoid","lose","press",1,"press","press",1
"245",984,"DNHR0900",1,4,3,2,1,2020,780,593,-1,"a.sham",2,"press",1,"NGL","noGo",0,24,1,5,"lose","Avoid","lose","no_press",1,"no_press","no_press",0
"246",990,"DNHR0900",1,4,3,2,1,1205,751,0,-1,"a.sham",2,"no_press",0,"NGL","noGo",1,30,1,6,"lose","Avoid","lose","press",0,NA,"press",1
"247",991,"DNHR0900",1,4,3,2,1,1349,952,690,-1,"a.sham",2,"press",1,"NGL","noGo",0,31,1,7,"lose","Avoid","lose","press",1,"press","press",1
"248",995,"DNHR0900",1,4,3,2,1,1759,927,951,-1,"a.sham",2,"press",1,"NGL","noGo",0,35,1,8,"lose","Avoid","lose","no_press",1,"no_press","no_press",0
"249",996,"DNHR0900",1,4,3,2,1,2086,535,0,0,"a.sham",2,"no_press",0,"NGL","noGo",1,36,1,9,"neutral","Avoid",NA,"no_press",1,"no_press","no_press",0
"250",997,"DNHR0900",1,4,3,2,1,2374,938,0,0,"a.sham",2,"no_press",0,"NGL","noGo",1,37,1,10,"neutral","Avoid",NA,"no_press",1,"no_press","no_press",0
"251",1000,"DNHR0900",1,4,3,2,1,2087,674,0,0,"a.sham",2,"no_press",0,"NGL","noGo",1,40,1,11,"neutral","Avoid",NA,"no_press",1,"no_press","no_press",0
"252",1002,"DNHR0900",1,4,3,2,1,2734,545,0,0,"a.sham",2,"no_press",0,"NGL","noGo",1,42,1,12,"neutral","Avoid",NA,"no_press",1,"no_press","no_press",0
"253",1005,"DNHR0900",1,4,3,2,1,2040,514,0,0,"a.sham",2,"no_press",0,"NGL","noGo",1,45,1,13,"neutral","Avoid",NA,"no_press",1,"no_press","no_press",0
"254",1008,"DNHR0900",1,4,3,2,1,1318,627,0,0,"a.sham",2,"no_press",0,"NGL","noGo",1,48,1,14,"neutral","Avoid",NA,"no_press",1,"no_press","no_press",0
"255",1019,"DNHR0900",1,4,3,2,1,1720,892,0,0,"a.sham",2,"no_press",0,"NGL","noGo",1,59,1,15,"neutral","Avoid",NA,"no_press",1,"no_press","no_press",0
"256",1022,"DNHR0900",1,4,3,2,1,2140,542,0,0,"a.sham",2,"no_press",0,"NGL","noGo",1,62,1,16,"neutral","Avoid",NA,"no_press",1,"no_press","no_press",0
"257",1023,"DNHR0900",1,4,3,2,1,1655,736,0,0,"a.sham",2,"no_press",0,"NGL","noGo",1,63,1,17,"neutral","Avoid",NA,"no_press",1,"no_press","no_press",0
"258",1032,"DNHR0900",1,4,3,2,1,1997,986,0,-1,"a.sham",2,"no_press",0,"NGL","noGo",1,72,1,18,"lose","Avoid","lose","no_press",0,NA,"no_press",0
"259",1038,"DNHR0900",1,4,3,2,1,1794,846,0,0,"a.sham",2,"no_press",0,"NGL","noGo",1,78,1,19,"neutral","Avoid",NA,"no_press",1,"no_press","no_press",0
"260",1039,"DNHR0900",1,4,3,2,1,1736,973,0,0,"a.sham",2,"no_press",0,"NGL","noGo",1,79,1,20,"neutral","Avoid",NA,"press",1,"press",NA,NA
"261",1044,"DNHR0900",5,6,7,8,5,1528,962,1117,-1,"a.sham",2,"press",1,"NGL","noGo",0,84,2,1,"lose","Avoid","lose","no_press",1,"no_press","no_press",0
"262",1045,"DNHR0900",5,6,7,8,5,2211,563,0,0,"a.sham",2,"no_press",0,"NGL","noGo",1,85,2,2,"neutral","Avoid",NA,"no_press",1,"no_press","no_press",0
"263",1051,"DNHR0900",5,6,7,8,5,1573,781,0,0,"a.sham",2,"no_press",0,"NGL","noGo",1,91,2,3,"neutral","Avoid",NA,"no_press",1,"no_press","no_press",0
"264",1054,"DNHR0900",5,6,7,8,5,1277,564,0,0,"a.sham",2,"no_press",0,"NGL","noGo",1,94,2,4,"neutral","Avoid",NA,"no_press",1,"no_press","no_press",0
"265",1061,"DNHR0900",5,6,7,8,5,1637,967,0,0,"a.sham",2,"no_press",0,"NGL","noGo",1,101,2,5,"neutral","Avoid",NA,"no_press",1,"no_press","no_press",0
"266",1063,"DNHR0900",5,6,7,8,5,1755,533,0,0,"a.sham",2,"no_press",0,"NGL","noGo",1,103,2,6,"neutral","Avoid",NA,"no_press",1,"no_press","no_press",0
"267",1068,"DNHR0900",5,6,7,8,5,2958,599,0,0,"a.sham",2,"no_press",0,"NGL","noGo",1,108,2,7,"neutral","Avoid",NA,"no_press",1,"no_press","no_press",0
"268",1081,"DNHR0900",5,6,7,8,5,1720,689,0,-1,"a.sham",2,"no_press",0,"NGL","noGo",1,121,2,8,"lose","Avoid","lose","press",0,NA,"press",1
"269",1083,"DNHR0900",5,6,7,8,5,1478,907,1209,-1,"a.sham",2,"press",1,"NGL","noGo",0,123,2,9,"lose","Avoid","lose","no_press",1,"no_press","no_press",0
"270",1087,"DNHR0900",5,6,7,8,5,1978,709,0,0,"a.sham",2,"no_press",0,"NGL","noGo",1,127,2,10,"neutral","Avoid",NA,"no_press",1,"no_press","no_press",0
"271",1090,"DNHR0900",5,6,7,8,5,2335,596,0,-1,"a.sham",2,"no_press",0,"NGL","noGo",1,130,2,11,"lose","Avoid","lose","press",0,NA,"press",1
"272",1094,"DNHR0900",5,6,7,8,5,1841,935,1105,-1,"a.sham",2,"press",1,"NGL","noGo",0,134,2,12,"lose","Avoid","lose","no_press",1,"no_press","no_press",0
"273",1097,"DNHR0900",5,6,7,8,5,2503,925,0,0,"a.sham",2,"no_press",0,"NGL","noGo",1,137,2,13,"neutral","Avoid",NA,"no_press",1,"no_press","no_press",0
"274",1104,"DNHR0900",5,6,7,8,5,1576,633,0,0,"a.sham",2,"no_press",0,"NGL","noGo",1,144,2,14,"neutral","Avoid",NA,"no_press",1,"no_press","no_press",0
"275",1106,"DNHR0900",5,6,7,8,5,2039,1000,0,0,"a.sham",2,"no_press",0,"NGL","noGo",1,146,2,15,"neutral","Avoid",NA,"no_press",1,"no_press","no_press",0
"276",1107,"DNHR0900",5,6,7,8,5,1510,687,0,0,"a.sham",2,"no_press",0,"NGL","noGo",1,147,2,16,"neutral","Avoid",NA,"no_press",1,"no_press","no_press",0
"277",1108,"DNHR0900",5,6,7,8,5,2100,741,0,0,"a.sham",2,"no_press",0,"NGL","noGo",1,148,2,17,"neutral","Avoid",NA,"no_press",1,"no_press","no_press",0
"278",1111,"DNHR0900",5,6,7,8,5,1526,859,0,-1,"a.sham",2,"no_press",0,"NGL","noGo",1,151,2,18,"lose","Avoid","lose","no_press",0,NA,"no_press",0
"279",1115,"DNHR0900",5,6,7,8,5,1565,550,0,0,"a.sham",2,"no_press",0,"NGL","noGo",1,155,2,19,"neutral","Avoid",NA,"no_press",1,"no_press","no_press",0
"280",1118,"DNHR0900",5,6,7,8,5,2231,567,0,0,"a.sham",2,"no_press",0,"NGL","noGo",1,158,2,20,"neutral","Avoid",NA,"no_press",1,"no_press",NA,NA
"281",1127,"DNHR0900",9,12,11,10,9,2420,526,0,-1,"a.sham",2,"no_press",0,"NGL","noGo",1,167,3,1,"lose","Avoid","lose","press",0,NA,"press",1
"282",1128,"DNHR0900",9,12,11,10,9,1671,831,427,-1,"a.sham",2,"press",1,"NGL","noGo",0,168,3,2,"lose","Avoid","lose","press",1,"press","press",1
"283",1131,"DNHR0900",9,12,11,10,9,1576,750,705,-1,"a.sham",2,"press",1,"NGL","noGo",0,171,3,3,"lose","Avoid","lose","no_press",1,"no_press","no_press",0
"284",1132,"DNHR0900",9,12,11,10,9,1984,757,0,0,"a.sham",2,"no_press",0,"NGL","noGo",1,172,3,4,"neutral","Avoid",NA,"no_press",1,"no_press","no_press",0
"285",1135,"DNHR0900",9,12,11,10,9,1584,644,0,0,"a.sham",2,"no_press",0,"NGL","noGo",1,175,3,5,"neutral","Avoid",NA,"no_press",1,"no_press","no_press",0
"286",1141,"DNHR0900",9,12,11,10,9,1500,558,0,-1,"a.sham",2,"no_press",0,"NGL","noGo",1,181,3,6,"lose","Avoid","lose","no_press",0,NA,"no_press",0
"287",1142,"DNHR0900",9,12,11,10,9,1000,543,0,0,"a.sham",2,"no_press",0,"NGL","noGo",1,182,3,7,"neutral","Avoid",NA,"no_press",1,"no_press","no_press",0
"288",1144,"DNHR0900",9,12,11,10,9,2958,507,0,0,"a.sham",2,"no_press",0,"NGL","noGo",1,184,3,8,"neutral","Avoid",NA,"no_press",1,"no_press","no_press",0
"289",1145,"DNHR0900",9,12,11,10,9,2936,771,0,0,"a.sham",2,"no_press",0,"NGL","noGo",1,185,3,9,"neutral","Avoid",NA,"no_press",1,"no_press","no_press",0
"290",1147,"DNHR0900",9,12,11,10,9,2065,999,0,0,"a.sham",2,"no_press",0,"NGL","noGo",1,187,3,10,"neutral","Avoid",NA,"no_press",1,"no_press","no_press",0
"291",1153,"DNHR0900",9,12,11,10,9,2078,890,0,0,"a.sham",2,"no_press",0,"NGL","noGo",1,193,3,11,"neutral","Avoid",NA,"no_press",1,"no_press","no_press",0
"292",1154,"DNHR0900",9,12,11,10,9,1960,905,0,0,"a.sham",2,"no_press",0,"NGL","noGo",1,194,3,12,"neutral","Avoid",NA,"no_press",1,"no_press","no_press",0
"293",1161,"DNHR0900",9,12,11,10,9,1522,989,0,0,"a.sham",2,"no_press",0,"NGL","noGo",1,201,3,13,"neutral","Avoid",NA,"no_press",1,"no_press","no_press",0
"294",1162,"DNHR0900",9,12,11,10,9,2273,773,0,0,"a.sham",2,"no_press",0,"NGL","noGo",1,202,3,14,"neutral","Avoid",NA,"no_press",1,"no_press","no_press",0
"295",1165,"DNHR0900",9,12,11,10,9,1733,857,0,0,"a.sham",2,"no_press",0,"NGL","noGo",1,205,3,15,"neutral","Avoid",NA,"no_press",1,"no_press","no_press",0
"296",1166,"DNHR0900",9,12,11,10,9,2243,501,0,0,"a.sham",2,"no_press",0,"NGL","noGo",1,206,3,16,"neutral","Avoid",NA,"no_press",1,"no_press","no_press",0
"297",1178,"DNHR0900",9,12,11,10,9,2247,525,0,-1,"a.sham",2,"no_press",0,"NGL","noGo",1,218,3,17,"lose","Avoid","lose","no_press",0,NA,"no_press",0
"298",1183,"DNHR0900",9,12,11,10,9,1832,597,0,0,"a.sham",2,"no_press",0,"NGL","noGo",1,223,3,18,"neutral","Avoid",NA,"no_press",1,"no_press","no_press",0
"299",1194,"DNHR0900",9,12,11,10,9,1551,797,0,0,"a.sham",2,"no_press",0,"NGL","noGo",1,234,3,19,"neutral","Avoid",NA,"no_press",1,"no_press","no_press",0
"300",1198,"DNHR0900",9,12,11,10,9,2511,751,0,0,"a.sham",2,"no_press",0,"NGL","noGo",1,238,3,20,"neutral","Avoid",NA,"press",1,"press",NA,NA
"301",1201,"DNHR0900",13,16,15,14,13,2334,517,504,-1,"a.sham",2,"press",1,"NGL","noGo",0,241,4,1,"lose","Avoid","lose","no_press",1,"no_press","no_press",0
"302",1202,"DNHR0900",13,16,15,14,13,1382,746,0,0,"a.sham",2,"no_press",0,"NGL","noGo",1,242,4,2,"neutral","Avoid",NA,"no_press",1,"no_press","no_press",0
"303",1203,"DNHR0900",13,16,15,14,13,1510,735,0,0,"a.sham",2,"no_press",0,"NGL","noGo",1,243,4,3,"neutral","Avoid",NA,"no_press",1,"no_press","no_press",0
"304",1212,"DNHR0900",13,16,15,14,13,1504,560,0,0,"a.sham",2,"no_press",0,"NGL","noGo",1,252,4,4,"neutral","Avoid",NA,"no_press",1,"no_press","no_press",0
"305",1213,"DNHR0900",13,16,15,14,13,1985,730,0,0,"a.sham",2,"no_press",0,"NGL","noGo",1,253,4,5,"neutral","Avoid",NA,"no_press",1,"no_press","no_press",0
"306",1221,"DNHR0900",13,16,15,14,13,2114,675,0,0,"a.sham",2,"no_press",0,"NGL","noGo",1,261,4,6,"neutral","Avoid",NA,"no_press",1,"no_press","no_press",0
"307",1222,"DNHR0900",13,16,15,14,13,1550,737,0,-1,"a.sham",2,"no_press",0,"NGL","noGo",1,262,4,7,"lose","Avoid","lose","no_press",0,NA,"no_press",0
"308",1223,"DNHR0900",13,16,15,14,13,2260,836,0,0,"a.sham",2,"no_press",0,"NGL","noGo",1,263,4,8,"neutral","Avoid",NA,"no_press",1,"no_press","no_press",0
"309",1225,"DNHR0900",13,16,15,14,13,2420,763,0,-1,"a.sham",2,"no_press",0,"NGL","noGo",1,265,4,9,"lose","Avoid","lose","press",0,NA,"press",1
"310",1226,"DNHR0900",13,16,15,14,13,2583,710,533,-1,"a.sham",2,"press",1,"NGL","noGo",0,266,4,10,"lose","Avoid","lose","no_press",1,"no_press","no_press",0
"311",1231,"DNHR0900",13,16,15,14,13,2138,778,0,0,"a.sham",2,"no_press",0,"NGL","noGo",1,271,4,11,"neutral","Avoid",NA,"no_press",1,"no_press","no_press",0
"312",1241,"DNHR0900",13,16,15,14,13,1474,856,0,0,"a.sham",2,"no_press",0,"NGL","noGo",1,281,4,12,"neutral","Avoid",NA,"no_press",1,"no_press","no_press",0
"313",1243,"DNHR0900",13,16,15,14,13,1268,977,0,0,"a.sham",2,"no_press",0,"NGL","noGo",1,283,4,13,"neutral","Avoid",NA,"no_press",1,"no_press","no_press",0
"314",1251,"DNHR0900",13,16,15,14,13,3219,656,0,-1,"a.sham",2,"no_press",0,"NGL","noGo",1,291,4,14,"lose","Avoid","lose","no_press",0,NA,"no_press",0
"315",1253,"DNHR0900",13,16,15,14,13,2168,926,0,0,"a.sham",2,"no_press",0,"NGL","noGo",1,293,4,15,"neutral","Avoid",NA,"press",1,"press","press",1
"316",1257,"DNHR0900",13,16,15,14,13,2671,700,344,-1,"a.sham",2,"press",1,"NGL","noGo",0,297,4,16,"lose","Avoid","lose","press",1,"press","press",1
"317",1261,"DNHR0900",13,16,15,14,13,3024,741,900,-1,"a.sham",2,"press",1,"NGL","noGo",0,301,4,17,"lose","Avoid","lose","no_press",1,"no_press","no_press",0
"318",1265,"DNHR0900",13,16,15,14,13,1513,731,0,0,"a.sham",2,"no_press",0,"NGL","noGo",1,305,4,18,"neutral","Avoid",NA,"no_press",1,"no_press","no_press",0
"319",1273,"DNHR0900",13,16,15,14,13,2089,565,0,0,"a.sham",2,"no_press",0,"NGL","noGo",1,313,4,19,"neutral","Avoid",NA,"no_press",1,"no_press","no_press",0
"320",1276,"DNHR0900",13,16,15,14,13,1989,979,0,0,"a.sham",2,"no_press",0,"NGL","noGo",1,316,4,20,"neutral","Avoid",NA,NA,1,NA,NA,NA
"321",1283,"EEMR0429",1,4,3,2,1,2324,962,0,0,"a.sham",2,"no_press",0,"NGL","noGo",1,3,1,1,"neutral","Avoid",NA,"no_press",1,"no_press","no_press",0
"322",1285,"EEMR0429",1,4,3,2,1,2039,832,0,-1,"a.sham",2,"no_press",0,"NGL","noGo",1,5,1,2,"lose","Avoid","lose","press",0,NA,"press",1
"323",1291,"EEMR0429",1,4,3,2,1,2243,828,602,-1,"a.sham",2,"press",1,"NGL","noGo",0,11,1,3,"lose","Avoid","lose","press",1,"press","press",1
"324",1293,"EEMR0429",1,4,3,2,1,1474,864,365,-1,"a.sham",2,"press",1,"NGL","noGo",0,13,1,4,"lose","Avoid","lose","press",1,"press","press",1
"325",1299,"EEMR0429",1,4,3,2,1,1478,615,713,-1,"a.sham",2,"press",1,"NGL","noGo",0,19,1,5,"lose","Avoid","lose","no_press",1,"no_press","no_press",0
"326",1305,"EEMR0429",1,4,3,2,1,1439,547,0,0,"a.sham",2,"no_press",0,"NGL","noGo",1,25,1,6,"neutral","Avoid",NA,"no_press",1,"no_press","no_press",0
"327",1306,"EEMR0429",1,4,3,2,1,1755,763,0,0,"a.sham",2,"no_press",0,"NGL","noGo",1,26,1,7,"neutral","Avoid",NA,"no_press",1,"no_press","no_press",0
"328",1307,"EEMR0429",1,4,3,2,1,2202,580,0,-1,"a.sham",2,"no_press",0,"NGL","noGo",1,27,1,8,"lose","Avoid","lose","no_press",0,NA,"no_press",0
"329",1308,"EEMR0429",1,4,3,2,1,2295,841,0,0,"a.sham",2,"no_press",0,"NGL","noGo",1,28,1,9,"neutral","Avoid",NA,"no_press",1,"no_press","no_press",0
"330",1312,"EEMR0429",1,4,3,2,1,2140,728,0,0,"a.sham",2,"no_press",0,"NGL","noGo",1,32,1,10,"neutral","Avoid",NA,"no_press",1,"no_press","no_press",0
"331",1322,"EEMR0429",1,4,3,2,1,1985,997,0,0,"a.sham",2,"no_press",0,"NGL","noGo",1,42,1,11,"neutral","Avoid",NA,"no_press",1,"no_press","no_press",0
"332",1325,"EEMR0429",1,4,3,2,1,3539,791,0,0,"a.sham",2,"no_press",0,"NGL","noGo",1,45,1,12,"neutral","Avoid",NA,"no_press",1,"no_press","no_press",0
"333",1326,"EEMR0429",1,4,3,2,1,1576,989,0,0,"a.sham",2,"no_press",0,"NGL","noGo",1,46,1,13,"neutral","Avoid",NA,"no_press",1,"no_press","no_press",0
"334",1329,"EEMR0429",1,4,3,2,1,1979,853,0,0,"a.sham",2,"no_press",0,"NGL","noGo",1,49,1,14,"neutral","Avoid",NA,"no_press",1,"no_press","no_press",0
"335",1333,"EEMR0429",1,4,3,2,1,1000,904,0,-1,"a.sham",2,"no_press",0,"NGL","noGo",1,53,1,15,"lose","Avoid","lose","no_press",0,NA,"no_press",0
"336",1343,"EEMR0429",1,4,3,2,1,1960,941,0,0,"a.sham",2,"no_press",0,"NGL","noGo",1,63,1,16,"neutral","Avoid",NA,"no_press",1,"no_press","no_press",0
"337",1348,"EEMR0429",1,4,3,2,1,1502,567,0,0,"a.sham",2,"no_press",0,"NGL","noGo",1,68,1,17,"neutral","Avoid",NA,"no_press",1,"no_press","no_press",0
"338",1354,"EEMR0429",1,4,3,2,1,2403,745,0,0,"a.sham",2,"no_press",0,"NGL","noGo",1,74,1,18,"neutral","Avoid",NA,"no_press",1,"no_press","no_press",0
"339",1356,"EEMR0429",1,4,3,2,1,2147,753,0,0,"a.sham",2,"no_press",0,"NGL","noGo",1,76,1,19,"neutral","Avoid",NA,"no_press",1,"no_press","no_press",0
"340",1360,"EEMR0429",1,4,3,2,1,1614,899,0,0,"a.sham",2,"no_press",0,"NGL","noGo",1,80,1,20,"neutral","Avoid",NA,"no_press",1,"no_press",NA,NA
"341",1363,"EEMR0429",7,8,5,6,7,3107,772,0,0,"a.sham",2,"no_press",0,"NGL","noGo",1,83,2,1,"neutral","Avoid",NA,"no_press",1,"no_press","no_press",0
"342",1364,"EEMR0429",7,8,5,6,7,2074,588,0,0,"a.sham",2,"no_press",0,"NGL","noGo",1,84,2,2,"neutral","Avoid",NA,"no_press",1,"no_press","no_press",0
"343",1366,"EEMR0429",7,8,5,6,7,1823,990,0,0,"a.sham",2,"no_press",0,"NGL","noGo",1,86,2,3,"neutral","Avoid",NA,"no_press",1,"no_press","no_press",0
"344",1369,"EEMR0429",7,8,5,6,7,2564,678,0,-1,"a.sham",2,"no_press",0,"NGL","noGo",1,89,2,4,"lose","Avoid","lose","no_press",0,NA,"no_press",0
"345",1374,"EEMR0429",7,8,5,6,7,2173,931,0,0,"a.sham",2,"no_press",0,"NGL","noGo",1,94,2,5,"neutral","Avoid",NA,"no_press",1,"no_press","no_press",0
"346",1378,"EEMR0429",7,8,5,6,7,2211,932,0,0,"a.sham",2,"no_press",0,"NGL","noGo",1,98,2,6,"neutral","Avoid",NA,"no_press",1,"no_press","no_press",0
"347",1382,"EEMR0429",7,8,5,6,7,1427,805,0,0,"a.sham",2,"no_press",0,"NGL","noGo",1,102,2,7,"neutral","Avoid",NA,"no_press",1,"no_press","no_press",0
"348",1385,"EEMR0429",7,8,5,6,7,2958,727,0,0,"a.sham",2,"no_press",0,"NGL","noGo",1,105,2,8,"neutral","Avoid",NA,"no_press",1,"no_press","no_press",0
"349",1386,"EEMR0429",7,8,5,6,7,1666,857,0,-1,"a.sham",2,"no_press",0,"NGL","noGo",1,106,2,9,"lose","Avoid","lose","no_press",0,NA,"no_press",0
"350",1390,"EEMR0429",7,8,5,6,7,2365,718,0,0,"a.sham",2,"no_press",0,"NGL","noGo",1,110,2,10,"neutral","Avoid",NA,"no_press",1,"no_press","no_press",0
"351",1402,"EEMR0429",7,8,5,6,7,2413,912,0,0,"a.sham",2,"no_press",0,"NGL","noGo",1,122,2,11,"neutral","Avoid",NA,"no_press",1,"no_press","no_press",0
"352",1403,"EEMR0429",7,8,5,6,7,2336,709,0,-1,"a.sham",2,"no_press",0,"NGL","noGo",1,123,2,12,"lose","Avoid","lose","no_press",0,NA,"no_press",0
"353",1409,"EEMR0429",7,8,5,6,7,3435,943,0,-1,"a.sham",2,"no_press",0,"NGL","noGo",1,129,2,13,"lose","Avoid","lose","no_press",0,NA,"no_press",0
"354",1414,"EEMR0429",7,8,5,6,7,2232,734,0,0,"a.sham",2,"no_press",0,"NGL","noGo",1,134,2,14,"neutral","Avoid",NA,"no_press",1,"no_press","no_press",0
"355",1417,"EEMR0429",7,8,5,6,7,1556,648,0,0,"a.sham",2,"no_press",0,"NGL","noGo",1,137,2,15,"neutral","Avoid",NA,"no_press",1,"no_press","no_press",0
"356",1418,"EEMR0429",7,8,5,6,7,3094,954,0,0,"a.sham",2,"no_press",0,"NGL","noGo",1,138,2,16,"neutral","Avoid",NA,"no_press",1,"no_press","no_press",0
"357",1427,"EEMR0429",7,8,5,6,7,2460,780,0,0,"a.sham",2,"no_press",0,"NGL","noGo",1,147,2,17,"neutral","Avoid",NA,"no_press",1,"no_press","no_press",0
"358",1430,"EEMR0429",7,8,5,6,7,2057,750,0,0,"a.sham",2,"no_press",0,"NGL","noGo",1,150,2,18,"neutral","Avoid",NA,"no_press",1,"no_press","no_press",0
"359",1431,"EEMR0429",7,8,5,6,7,2435,698,0,0,"a.sham",2,"no_press",0,"NGL","noGo",1,151,2,19,"neutral","Avoid",NA,"no_press",1,"no_press","no_press",0
"360",1440,"EEMR0429",7,8,5,6,7,1474,559,0,0,"a.sham",2,"no_press",0,"NGL","noGo",1,160,2,20,"neutral","Avoid",NA,"no_press",1,"no_press",NA,NA
"361",1441,"EEMR0429",11,10,9,12,11,2138,890,0,0,"a.sham",2,"no_press",0,"NGL","noGo",1,161,3,1,"neutral","Avoid",NA,"no_press",1,"no_press","no_press",0
"362",1444,"EEMR0429",11,10,9,12,11,1873,964,0,0,"a.sham",2,"no_press",0,"NGL","noGo",1,164,3,2,"neutral","Avoid",NA,"no_press",1,"no_press","no_press",0
"363",1451,"EEMR0429",11,10,9,12,11,2031,666,0,0,"a.sham",2,"no_press",0,"NGL","noGo",1,171,3,3,"neutral","Avoid",NA,"no_press",1,"no_press","no_press",0
"364",1457,"EEMR0429",11,10,9,12,11,1759,594,0,0,"a.sham",2,"no_press",0,"NGL","noGo",1,177,3,4,"neutral","Avoid",NA,"no_press",1,"no_press","no_press",0
"365",1458,"EEMR0429",11,10,9,12,11,1819,515,0,0,"a.sham",2,"no_press",0,"NGL","noGo",1,178,3,5,"neutral","Avoid",NA,"no_press",1,"no_press","no_press",0
"366",1459,"EEMR0429",11,10,9,12,11,1813,672,0,0,"a.sham",2,"no_press",0,"NGL","noGo",1,179,3,6,"neutral","Avoid",NA,"no_press",1,"no_press","no_press",0
"367",1464,"EEMR0429",11,10,9,12,11,1512,749,0,0,"a.sham",2,"no_press",0,"NGL","noGo",1,184,3,7,"neutral","Avoid",NA,"no_press",1,"no_press","no_press",0
"368",1467,"EEMR0429",11,10,9,12,11,1300,877,0,-1,"a.sham",2,"no_press",0,"NGL","noGo",1,187,3,8,"lose","Avoid","lose","no_press",0,NA,"no_press",0
"369",1475,"EEMR0429",11,10,9,12,11,3057,878,0,-1,"a.sham",2,"no_press",0,"NGL","noGo",1,195,3,9,"lose","Avoid","lose","no_press",0,NA,"no_press",0
"370",1492,"EEMR0429",11,10,9,12,11,2266,906,0,0,"a.sham",2,"no_press",0,"NGL","noGo",1,212,3,10,"neutral","Avoid",NA,"no_press",1,"no_press","no_press",0
"371",1493,"EEMR0429",11,10,9,12,11,1623,517,0,0,"a.sham",2,"no_press",0,"NGL","noGo",1,213,3,11,"neutral","Avoid",NA,"no_press",1,"no_press","no_press",0
"372",1498,"EEMR0429",11,10,9,12,11,2086,585,0,0,"a.sham",2,"no_press",0,"NGL","noGo",1,218,3,12,"neutral","Avoid",NA,"no_press",1,"no_press","no_press",0
"373",1499,"EEMR0429",11,10,9,12,11,1582,692,0,-1,"a.sham",2,"no_press",0,"NGL","noGo",1,219,3,13,"lose","Avoid","lose","no_press",0,NA,"no_press",0
"374",1501,"EEMR0429",11,10,9,12,11,1000,661,0,-1,"a.sham",2,"no_press",0,"NGL","noGo",1,221,3,14,"lose","Avoid","lose","no_press",0,NA,"no_press",0
"375",1509,"EEMR0429",11,10,9,12,11,2289,731,0,0,"a.sham",2,"no_press",0,"NGL","noGo",1,229,3,15,"neutral","Avoid",NA,"no_press",1,"no_press","no_press",0
"376",1512,"EEMR0429",11,10,9,12,11,1528,866,0,0,"a.sham",2,"no_press",0,"NGL","noGo",1,232,3,16,"neutral","Avoid",NA,"no_press",1,"no_press","no_press",0
"377",1513,"EEMR0429",11,10,9,12,11,2520,984,0,0,"a.sham",2,"no_press",0,"NGL","noGo",1,233,3,17,"neutral","Avoid",NA,"no_press",1,"no_press","no_press",0
"378",1515,"EEMR0429",11,10,9,12,11,1592,696,0,0,"a.sham",2,"no_press",0,"NGL","noGo",1,235,3,18,"neutral","Avoid",NA,"no_press",1,"no_press","no_press",0
"379",1518,"EEMR0429",11,10,9,12,11,1856,941,0,0,"a.sham",2,"no_press",0,"NGL","noGo",1,238,3,19,"neutral","Avoid",NA,"no_press",1,"no_press","no_press",0
"380",1520,"EEMR0429",11,10,9,12,11,1871,572,0,0,"a.sham",2,"no_press",0,"NGL","noGo",1,240,3,20,"neutral","Avoid",NA,"no_press",1,"no_press",NA,NA
"381",1521,"EEMR0429",15,14,13,16,15,2353,625,0,0,"a.sham",2,"no_press",0,"NGL","noGo",1,241,4,1,"neutral","Avoid",NA,"no_press",1,"no_press","no_press",0
"382",1525,"EEMR0429",15,14,13,16,15,1343,793,0,0,"a.sham",2,"no_press",0,"NGL","noGo",1,245,4,2,"neutral","Avoid",NA,"no_press",1,"no_press","no_press",0
"383",1532,"EEMR0429",15,14,13,16,15,1898,852,0,0,"a.sham",2,"no_press",0,"NGL","noGo",1,252,4,3,"neutral","Avoid",NA,"no_press",1,"no_press","no_press",0
"384",1534,"EEMR0429",15,14,13,16,15,2907,770,0,-1,"a.sham",2,"no_press",0,"NGL","noGo",1,254,4,4,"lose","Avoid","lose","no_press",0,NA,"no_press",0
"385",1538,"EEMR0429",15,14,13,16,15,2525,983,0,-1,"a.sham",2,"no_press",0,"NGL","noGo",1,258,4,5,"lose","Avoid","lose","no_press",0,NA,"no_press",0
"386",1539,"EEMR0429",15,14,13,16,15,1550,831,0,0,"a.sham",2,"no_press",0,"NGL","noGo",1,259,4,6,"neutral","Avoid",NA,"no_press",1,"no_press","no_press",0
"387",1541,"EEMR0429",15,14,13,16,15,2335,974,0,0,"a.sham",2,"no_press",0,"NGL","noGo",1,261,4,7,"neutral","Avoid",NA,"no_press",1,"no_press","no_press",0
"388",1542,"EEMR0429",15,14,13,16,15,1254,967,0,0,"a.sham",2,"no_press",0,"NGL","noGo",1,262,4,8,"neutral","Avoid",NA,"no_press",1,"no_press","no_press",0
"389",1546,"EEMR0429",15,14,13,16,15,1207,712,0,0,"a.sham",2,"no_press",0,"NGL","noGo",1,266,4,9,"neutral","Avoid",NA,"no_press",1,"no_press","no_press",0
"390",1547,"EEMR0429",15,14,13,16,15,1469,716,0,0,"a.sham",2,"no_press",0,"NGL","noGo",1,267,4,10,"neutral","Avoid",NA,"no_press",1,"no_press","no_press",0
"391",1553,"EEMR0429",15,14,13,16,15,1759,682,0,0,"a.sham",2,"no_press",0,"NGL","noGo",1,273,4,11,"neutral","Avoid",NA,"no_press",1,"no_press","no_press",0
"392",1556,"EEMR0429",15,14,13,16,15,1737,947,0,0,"a.sham",2,"no_press",0,"NGL","noGo",1,276,4,12,"neutral","Avoid",NA,"no_press",1,"no_press","no_press",0
"393",1558,"EEMR0429",15,14,13,16,15,1181,986,0,-1,"a.sham",2,"no_press",0,"NGL","noGo",1,278,4,13,"lose","Avoid","lose","no_press",0,NA,"no_press",0
"394",1563,"EEMR0429",15,14,13,16,15,2642,688,0,0,"a.sham",2,"no_press",0,"NGL","noGo",1,283,4,14,"neutral","Avoid",NA,"no_press",1,"no_press","no_press",0
"395",1569,"EEMR0429",15,14,13,16,15,2936,561,0,-1,"a.sham",2,"no_press",0,"NGL","noGo",1,289,4,15,"lose","Avoid","lose","no_press",0,NA,"no_press",0
"396",1570,"EEMR0429",15,14,13,16,15,1418,613,0,0,"a.sham",2,"no_press",0,"NGL","noGo",1,290,4,16,"neutral","Avoid",NA,"no_press",1,"no_press","no_press",0
"397",1571,"EEMR0429",15,14,13,16,15,2420,954,0,0,"a.sham",2,"no_press",0,"NGL","noGo",1,291,4,17,"neutral","Avoid",NA,"no_press",1,"no_press","no_press",0
"398",1572,"EEMR0429",15,14,13,16,15,2331,996,0,0,"a.sham",2,"no_press",0,"NGL","noGo",1,292,4,18,"neutral","Avoid",NA,"no_press",1,"no_press","no_press",0
"399",1573,"EEMR0429",15,14,13,16,15,2059,982,0,0,"a.sham",2,"no_press",0,"NGL","noGo",1,293,4,19,"neutral","Avoid",NA,"no_press",1,"no_press","no_press",0
"400",1574,"EEMR0429",15,14,13,16,15,3659,891,0,0,"a.sham",2,"no_press",0,"NGL","noGo",1,294,4,20,"neutral","Avoid",NA,NA,1,NA,NA,NA
"401",1602,"FNMA0105",1,4,3,2,1,1250,840,707,-1,"a.sham",1,"press",1,"NGL","noGo",0,2,1,1,"lose","Avoid","lose","press",1,"press","press",1
"402",1604,"FNMA0105",1,4,3,2,1,1597,575,814,-1,"a.sham",1,"press",1,"NGL","noGo",0,4,1,2,"lose","Avoid","lose","no_press",1,"no_press","no_press",0
"403",1605,"FNMA0105",1,4,3,2,1,1780,896,0,0,"a.sham",1,"no_press",0,"NGL","noGo",1,5,1,3,"neutral","Avoid",NA,"no_press",1,"no_press","no_press",0
"404",1609,"FNMA0105",1,4,3,2,1,1575,872,0,0,"a.sham",1,"no_press",0,"NGL","noGo",1,9,1,4,"neutral","Avoid",NA,"press",1,"press","press",1
"405",1613,"FNMA0105",1,4,3,2,1,1787,972,751,-1,"a.sham",1,"press",1,"NGL","noGo",0,13,1,5,"lose","Avoid","lose","no_press",1,"no_press","no_press",0
"406",1614,"FNMA0105",1,4,3,2,1,1000,709,0,-1,"a.sham",1,"no_press",0,"NGL","noGo",1,14,1,6,"lose","Avoid","lose","no_press",0,NA,"no_press",0
"407",1617,"FNMA0105",1,4,3,2,1,1932,600,0,-1,"a.sham",1,"no_press",0,"NGL","noGo",1,17,1,7,"lose","Avoid","lose","no_press",0,NA,"no_press",0
"408",1625,"FNMA0105",1,4,3,2,1,1187,748,0,0,"a.sham",1,"no_press",0,"NGL","noGo",1,25,1,8,"neutral","Avoid",NA,"no_press",1,"no_press","no_press",0
"409",1626,"FNMA0105",1,4,3,2,1,2663,647,0,0,"a.sham",1,"no_press",0,"NGL","noGo",1,26,1,9,"neutral","Avoid",NA,"no_press",1,"no_press","no_press",0
"410",1634,"FNMA0105",1,4,3,2,1,1965,558,0,0,"a.sham",1,"no_press",0,"NGL","noGo",1,34,1,10,"neutral","Avoid",NA,"no_press",1,"no_press","no_press",0
"411",1639,"FNMA0105",1,4,3,2,1,2528,583,0,0,"a.sham",1,"no_press",0,"NGL","noGo",1,39,1,11,"neutral","Avoid",NA,"no_press",1,"no_press","no_press",0
"412",1642,"FNMA0105",1,4,3,2,1,1598,638,0,-1,"a.sham",1,"no_press",0,"NGL","noGo",1,42,1,12,"lose","Avoid","lose","no_press",0,NA,"no_press",0
"413",1650,"FNMA0105",1,4,3,2,1,1479,693,0,0,"a.sham",1,"no_press",0,"NGL","noGo",1,50,1,13,"neutral","Avoid",NA,"no_press",1,"no_press","no_press",0
"414",1651,"FNMA0105",1,4,3,2,1,1547,852,0,0,"a.sham",1,"no_press",0,"NGL","noGo",1,51,1,14,"neutral","Avoid",NA,"no_press",1,"no_press","no_press",0
"415",1657,"FNMA0105",1,4,3,2,1,1495,622,0,0,"a.sham",1,"no_press",0,"NGL","noGo",1,57,1,15,"neutral","Avoid",NA,"no_press",1,"no_press","no_press",0
"416",1662,"FNMA0105",1,4,3,2,1,1690,725,0,0,"a.sham",1,"no_press",0,"NGL","noGo",1,62,1,16,"neutral","Avoid",NA,"no_press",1,"no_press","no_press",0
"417",1664,"FNMA0105",1,4,3,2,1,2237,890,0,0,"a.sham",1,"no_press",0,"NGL","noGo",1,64,1,17,"neutral","Avoid",NA,"no_press",1,"no_press","no_press",0
"418",1672,"FNMA0105",1,4,3,2,1,2745,790,0,0,"a.sham",1,"no_press",0,"NGL","noGo",1,72,1,18,"neutral","Avoid",NA,"no_press",1,"no_press","no_press",0
"419",1673,"FNMA0105",1,4,3,2,1,1596,615,0,0,"a.sham",1,"no_press",0,"NGL","noGo",1,73,1,19,"neutral","Avoid",NA,"no_press",1,"no_press","no_press",0
"420",1678,"FNMA0105",1,4,3,2,1,2087,575,0,0,"a.sham",1,"no_press",0,"NGL","noGo",1,78,1,20,"neutral","Avoid",NA,"press",1,"press",NA,NA
"421",1685,"FNMA0105",5,6,7,8,5,2745,814,790,-1,"a.sham",1,"press",1,"NGL","noGo",0,85,2,1,"lose","Avoid","lose","press",1,"press","press",1
"422",1687,"FNMA0105",5,6,7,8,5,1795,661,618,0,"a.sham",1,"press",1,"NGL","noGo",0,87,2,2,"neutral","Avoid",NA,"press",0,NA,"press",1
"423",1690,"FNMA0105",5,6,7,8,5,2032,753,769,-1,"a.sham",1,"press",1,"NGL","noGo",0,90,2,3,"lose","Avoid","lose","no_press",1,"no_press","no_press",0
"424",1698,"FNMA0105",5,6,7,8,5,1364,547,0,0,"a.sham",1,"no_press",0,"NGL","noGo",1,98,2,4,"neutral","Avoid",NA,"no_press",1,"no_press","no_press",0
"425",1699,"FNMA0105",5,6,7,8,5,2185,782,0,0,"a.sham",1,"no_press",0,"NGL","noGo",1,99,2,5,"neutral","Avoid",NA,"no_press",1,"no_press","no_press",0
"426",1700,"FNMA0105",5,6,7,8,5,1434,810,0,0,"a.sham",1,"no_press",0,"NGL","noGo",1,100,2,6,"neutral","Avoid",NA,"no_press",1,"no_press","no_press",0
"427",1703,"FNMA0105",5,6,7,8,5,1655,839,0,0,"a.sham",1,"no_press",0,"NGL","noGo",1,103,2,7,"neutral","Avoid",NA,"no_press",1,"no_press","no_press",0
"428",1705,"FNMA0105",5,6,7,8,5,1615,739,0,0,"a.sham",1,"no_press",0,"NGL","noGo",1,105,2,8,"neutral","Avoid",NA,"no_press",1,"no_press","no_press",0
"429",1716,"FNMA0105",5,6,7,8,5,1465,830,0,0,"a.sham",1,"no_press",0,"NGL","noGo",1,116,2,9,"neutral","Avoid",NA,"no_press",1,"no_press","no_press",0
"430",1725,"FNMA0105",5,6,7,8,5,1729,525,0,0,"a.sham",1,"no_press",0,"NGL","noGo",1,125,2,10,"neutral","Avoid",NA,"no_press",1,"no_press","no_press",0
"431",1726,"FNMA0105",5,6,7,8,5,2195,619,0,0,"a.sham",1,"no_press",0,"NGL","noGo",1,126,2,11,"neutral","Avoid",NA,"no_press",1,"no_press","no_press",0
"432",1728,"FNMA0105",5,6,7,8,5,2318,618,0,0,"a.sham",1,"no_press",0,"NGL","noGo",1,128,2,12,"neutral","Avoid",NA,"no_press",1,"no_press","no_press",0
"433",1738,"FNMA0105",5,6,7,8,5,1346,621,0,0,"a.sham",1,"no_press",0,"NGL","noGo",1,138,2,13,"neutral","Avoid",NA,"no_press",1,"no_press","no_press",0
"434",1746,"FNMA0105",5,6,7,8,5,2538,925,0,0,"a.sham",1,"no_press",0,"NGL","noGo",1,146,2,14,"neutral","Avoid",NA,"no_press",1,"no_press","no_press",0
"435",1747,"FNMA0105",5,6,7,8,5,2262,549,0,0,"a.sham",1,"no_press",0,"NGL","noGo",1,147,2,15,"neutral","Avoid",NA,"no_press",1,"no_press","no_press",0
"436",1748,"FNMA0105",5,6,7,8,5,2538,883,0,0,"a.sham",1,"no_press",0,"NGL","noGo",1,148,2,16,"neutral","Avoid",NA,"press",1,"press","press",1
"437",1754,"FNMA0105",5,6,7,8,5,1967,535,431,0,"a.sham",1,"press",1,"NGL","noGo",0,154,2,17,"neutral","Avoid",NA,"press",0,NA,"press",1
"438",1755,"FNMA0105",5,6,7,8,5,2650,723,415,-1,"a.sham",1,"press",1,"NGL","noGo",0,155,2,18,"lose","Avoid","lose","no_press",1,"no_press","no_press",0
"439",1756,"FNMA0105",5,6,7,8,5,1504,975,0,-1,"a.sham",1,"no_press",0,"NGL","noGo",1,156,2,19,"lose","Avoid","lose","press",0,NA,"press",1
"440",1758,"FNMA0105",5,6,7,8,5,2125,732,389,-1,"a.sham",1,"press",1,"NGL","noGo",0,158,2,20,"lose","Avoid","lose","press",1,"press",NA,NA
"441",1761,"FNMA0105",9,10,11,12,9,2776,990,705,-1,"a.sham",1,"press",1,"NGL","noGo",0,161,3,1,"lose","Avoid","lose","press",1,"press","press",1
"442",1762,"FNMA0105",9,10,11,12,9,1736,719,623,-1,"a.sham",1,"press",1,"NGL","noGo",0,162,3,2,"lose","Avoid","lose","press",1,"press","press",1
"443",1769,"FNMA0105",9,10,11,12,9,2018,583,728,-1,"a.sham",1,"press",1,"NGL","noGo",0,169,3,3,"lose","Avoid","lose","no_press",1,"no_press","no_press",0
"444",1776,"FNMA0105",9,10,11,12,9,1743,714,0,0,"a.sham",1,"no_press",0,"NGL","noGo",1,176,3,4,"neutral","Avoid",NA,"no_press",1,"no_press","no_press",0
"445",1778,"FNMA0105",9,10,11,12,9,1620,821,0,-1,"a.sham",1,"no_press",0,"NGL","noGo",1,178,3,5,"lose","Avoid","lose","no_press",0,NA,"no_press",0
"446",1782,"FNMA0105",9,10,11,12,9,1746,550,0,0,"a.sham",1,"no_press",0,"NGL","noGo",1,182,3,6,"neutral","Avoid",NA,"press",1,"press","press",1
"447",1783,"FNMA0105",9,10,11,12,9,2615,600,1275,-1,"a.sham",1,"press",1,"NGL","noGo",0,183,3,7,"lose","Avoid","lose","no_press",1,"no_press","no_press",0
"448",1788,"FNMA0105",9,10,11,12,9,1249,804,0,0,"a.sham",1,"no_press",0,"NGL","noGo",1,188,3,8,"neutral","Avoid",NA,"no_press",1,"no_press","no_press",0
"449",1789,"FNMA0105",9,10,11,12,9,1879,839,0,0,"a.sham",1,"no_press",0,"NGL","noGo",1,189,3,9,"neutral","Avoid",NA,"press",1,"press","press",1
"450",1792,"FNMA0105",9,10,11,12,9,2019,876,781,-1,"a.sham",1,"press",1,"NGL","noGo",0,192,3,10,"lose","Avoid","lose","press",1,"press","press",1
"451",1796,"FNMA0105",9,10,11,12,9,2337,560,539,-1,"a.sham",1,"press",1,"NGL","noGo",0,196,3,11,"lose","Avoid","lose","no_press",1,"no_press","no_press",0
"452",1801,"FNMA0105",9,10,11,12,9,1909,923,0,0,"a.sham",1,"no_press",0,"NGL","noGo",1,201,3,12,"neutral","Avoid",NA,"no_press",1,"no_press","no_press",0
"453",1805,"FNMA0105",9,10,11,12,9,2234,632,0,-1,"a.sham",1,"no_press",0,"NGL","noGo",1,205,3,13,"lose","Avoid","lose","no_press",0,NA,"no_press",0
"454",1819,"FNMA0105",9,10,11,12,9,2132,651,0,0,"a.sham",1,"no_press",0,"NGL","noGo",1,219,3,14,"neutral","Avoid",NA,"no_press",1,"no_press","no_press",0
"455",1821,"FNMA0105",9,10,11,12,9,2817,538,0,0,"a.sham",1,"no_press",0,"NGL","noGo",1,221,3,15,"neutral","Avoid",NA,"no_press",1,"no_press","no_press",0
"456",1823,"FNMA0105",9,10,11,12,9,2467,541,0,0,"a.sham",1,"no_press",0,"NGL","noGo",1,223,3,16,"neutral","Avoid",NA,"no_press",1,"no_press","no_press",0
"457",1824,"FNMA0105",9,10,11,12,9,2184,502,0,0,"a.sham",1,"no_press",0,"NGL","noGo",1,224,3,17,"neutral","Avoid",NA,"no_press",1,"no_press","no_press",0
"458",1832,"FNMA0105",9,10,11,12,9,1848,558,0,0,"a.sham",1,"no_press",0,"NGL","noGo",1,232,3,18,"neutral","Avoid",NA,"no_press",1,"no_press","no_press",0
"459",1834,"FNMA0105",9,10,11,12,9,1885,948,0,0,"a.sham",1,"no_press",0,"NGL","noGo",1,234,3,19,"neutral","Avoid",NA,"no_press",1,"no_press","no_press",0
"460",1835,"FNMA0105",9,10,11,12,9,2404,693,0,-1,"a.sham",1,"no_press",0,"NGL","noGo",1,235,3,20,"lose","Avoid","lose","press",0,NA,NA,NA
"461",1841,"FNMA0105",15,14,13,16,15,1630,641,672,-1,"a.sham",1,"press",1,"NGL","noGo",0,241,4,1,"lose","Avoid","lose","no_press",1,"no_press","no_press",0
"462",1851,"FNMA0105",15,14,13,16,15,1166,987,0,0,"a.sham",1,"no_press",0,"NGL","noGo",1,251,4,2,"neutral","Avoid",NA,"no_press",1,"no_press","no_press",0
"463",1852,"FNMA0105",15,14,13,16,15,1880,543,0,0,"a.sham",1,"no_press",0,"NGL","noGo",1,252,4,3,"neutral","Avoid",NA,"no_press",1,"no_press","no_press",0
"464",1853,"FNMA0105",15,14,13,16,15,1458,936,0,0,"a.sham",1,"no_press",0,"NGL","noGo",1,253,4,4,"neutral","Avoid",NA,"no_press",1,"no_press","no_press",0
"465",1854,"FNMA0105",15,14,13,16,15,1547,593,0,0,"a.sham",1,"no_press",0,"NGL","noGo",1,254,4,5,"neutral","Avoid",NA,"no_press",1,"no_press","no_press",0
"466",1862,"FNMA0105",15,14,13,16,15,1936,862,0,0,"a.sham",1,"no_press",0,"NGL","noGo",1,262,4,6,"neutral","Avoid",NA,"no_press",1,"no_press","no_press",0
"467",1869,"FNMA0105",15,14,13,16,15,2818,528,0,0,"a.sham",1,"no_press",0,"NGL","noGo",1,269,4,7,"neutral","Avoid",NA,"press",1,"press","press",1
"468",1874,"FNMA0105",15,14,13,16,15,1182,589,814,-1,"a.sham",1,"press",1,"NGL","noGo",0,274,4,8,"lose","Avoid","lose","no_press",1,"no_press","no_press",0
"469",1881,"FNMA0105",15,14,13,16,15,2492,779,0,0,"a.sham",1,"no_press",0,"NGL","noGo",1,281,4,9,"neutral","Avoid",NA,"no_press",1,"no_press","no_press",0
"470",1889,"FNMA0105",15,14,13,16,15,2367,675,0,0,"a.sham",1,"no_press",0,"NGL","noGo",1,289,4,10,"neutral","Avoid",NA,"no_press",1,"no_press","no_press",0
"471",1891,"FNMA0105",15,14,13,16,15,1855,820,0,-1,"a.sham",1,"no_press",0,"NGL","noGo",1,291,4,11,"lose","Avoid","lose","no_press",0,NA,"no_press",0
"472",1893,"FNMA0105",15,14,13,16,15,2315,913,0,0,"a.sham",1,"no_press",0,"NGL","noGo",1,293,4,12,"neutral","Avoid",NA,"no_press",1,"no_press","no_press",0
"473",1894,"FNMA0105",15,14,13,16,15,3099,605,0,0,"a.sham",1,"no_press",0,"NGL","noGo",1,294,4,13,"neutral","Avoid",NA,"no_press",1,"no_press","no_press",0
"474",1900,"FNMA0105",15,14,13,16,15,2096,590,0,-1,"a.sham",1,"no_press",0,"NGL","noGo",1,300,4,14,"lose","Avoid","lose","no_press",0,NA,"no_press",0
"475",1901,"FNMA0105",15,14,13,16,15,1990,551,0,0,"a.sham",1,"no_press",0,"NGL","noGo",1,301,4,15,"neutral","Avoid",NA,"no_press",1,"no_press","no_press",0
"476",1904,"FNMA0105",15,14,13,16,15,1807,651,0,0,"a.sham",1,"no_press",0,"NGL","noGo",1,304,4,16,"neutral","Avoid",NA,"no_press",1,"no_press","no_press",0
"477",1905,"FNMA0105",15,14,13,16,15,1771,781,0,-1,"a.sham",1,"no_press",0,"NGL","noGo",1,305,4,17,"lose","Avoid","lose","no_press",0,NA,"no_press",0
"478",1912,"FNMA0105",15,14,13,16,15,1966,827,0,0,"a.sham",1,"no_press",0,"NGL","noGo",1,312,4,18,"neutral","Avoid",NA,"no_press",1,"no_press","no_press",0
"479",1913,"FNMA0105",15,14,13,16,15,1963,614,0,0,"a.sham",1,"no_press",0,"NGL","noGo",1,313,4,19,"neutral","Avoid",NA,"no_press",1,"no_press","no_press",0
"480",1914,"FNMA0105",15,14,13,16,15,2266,652,0,-1,"a.sham",1,"no_press",0,"NGL","noGo",1,314,4,20,"lose","Avoid","lose",NA,0,NA,NA,NA
"481",1921,"GAEL0180",1,2,3,4,1,2293,602,519,-1,"a.sham",2,"press",1,"NGL","noGo",0,1,1,1,"lose","Avoid","lose","no_press",1,"no_press","no_press",0
"482",1922,"GAEL0180",1,2,3,4,1,1485,530,0,0,"a.sham",2,"no_press",0,"NGL","noGo",1,2,1,2,"neutral","Avoid",NA,"no_press",1,"no_press","no_press",0
"483",1923,"GAEL0180",1,2,3,4,1,2057,575,0,0,"a.sham",2,"no_press",0,"NGL","noGo",1,3,1,3,"neutral","Avoid",NA,"no_press",1,"no_press","no_press",0
"484",1928,"GAEL0180",1,2,3,4,1,1792,560,0,0,"a.sham",2,"no_press",0,"NGL","noGo",1,8,1,4,"neutral","Avoid",NA,"no_press",1,"no_press","no_press",0
"485",1933,"GAEL0180",1,2,3,4,1,2649,958,0,-1,"a.sham",2,"no_press",0,"NGL","noGo",1,13,1,5,"lose","Avoid","lose","no_press",0,NA,"no_press",0
"486",1934,"GAEL0180",1,2,3,4,1,1660,776,0,0,"a.sham",2,"no_press",0,"NGL","noGo",1,14,1,6,"neutral","Avoid",NA,"no_press",1,"no_press","no_press",0
"487",1947,"GAEL0180",1,2,3,4,1,2336,716,0,0,"a.sham",2,"no_press",0,"NGL","noGo",1,27,1,7,"neutral","Avoid",NA,"no_press",1,"no_press","no_press",0
"488",1949,"GAEL0180",1,2,3,4,1,2324,732,0,0,"a.sham",2,"no_press",0,"NGL","noGo",1,29,1,8,"neutral","Avoid",NA,"no_press",1,"no_press","no_press",0
"489",1953,"GAEL0180",1,2,3,4,1,1720,572,0,0,"a.sham",2,"no_press",0,"NGL","noGo",1,33,1,9,"neutral","Avoid",NA,"no_press",1,"no_press","no_press",0
"490",1957,"GAEL0180",1,2,3,4,1,1422,578,0,0,"a.sham",2,"no_press",0,"NGL","noGo",1,37,1,10,"neutral","Avoid",NA,"no_press",1,"no_press","no_press",0
"491",1959,"GAEL0180",1,2,3,4,1,2592,636,0,0,"a.sham",2,"no_press",0,"NGL","noGo",1,39,1,11,"neutral","Avoid",NA,"no_press",1,"no_press","no_press",0
"492",1961,"GAEL0180",1,2,3,4,1,1755,947,0,-1,"a.sham",2,"no_press",0,"NGL","noGo",1,41,1,12,"lose","Avoid","lose","no_press",0,NA,"no_press",0
"493",1976,"GAEL0180",1,2,3,4,1,1833,769,0,0,"a.sham",2,"no_press",0,"NGL","noGo",1,56,1,13,"neutral","Avoid",NA,"no_press",1,"no_press","no_press",0
"494",1981,"GAEL0180",1,2,3,4,1,2059,950,0,0,"a.sham",2,"no_press",0,"NGL","noGo",1,61,1,14,"neutral","Avoid",NA,"no_press",1,"no_press","no_press",0
"495",1985,"GAEL0180",1,2,3,4,1,1539,794,0,0,"a.sham",2,"no_press",0,"NGL","noGo",1,65,1,15,"neutral","Avoid",NA,"no_press",1,"no_press","no_press",0
"496",1993,"GAEL0180",1,2,3,4,1,2927,633,0,0,"a.sham",2,"no_press",0,"NGL","noGo",1,73,1,16,"neutral","Avoid",NA,"no_press",1,"no_press","no_press",0
"497",1994,"GAEL0180",1,2,3,4,1,1737,738,0,0,"a.sham",2,"no_press",0,"NGL","noGo",1,74,1,17,"neutral","Avoid",NA,"no_press",1,"no_press","no_press",0
"498",1996,"GAEL0180",1,2,3,4,1,1631,779,0,0,"a.sham",2,"no_press",0,"NGL","noGo",1,76,1,18,"neutral","Avoid",NA,"no_press",1,"no_press","no_press",0
"499",1997,"GAEL0180",1,2,3,4,1,1528,911,0,-1,"a.sham",2,"no_press",0,"NGL","noGo",1,77,1,19,"lose","Avoid","lose","no_press",0,NA,"no_press",0
"500",1998,"GAEL0180",1,2,3,4,1,2898,983,0,0,"a.sham",2,"no_press",0,"NGL","noGo",1,78,1,20,"neutral","Avoid",NA,"press",1,"press",NA,NA
"501",2002,"GAEL0180",5,6,7,8,5,2334,767,827,-1,"a.sham",2,"press",1,"NGL","noGo",0,82,2,1,"lose","Avoid","lose","no_press",1,"no_press","no_press",0
"502",2004,"GAEL0180",5,6,7,8,5,2247,807,0,0,"a.sham",2,"no_press",0,"NGL","noGo",1,84,2,2,"neutral","Avoid",NA,"no_press",1,"no_press","no_press",0
"503",2010,"GAEL0180",5,6,7,8,5,2185,563,0,0,"a.sham",2,"no_press",0,"NGL","noGo",1,90,2,3,"neutral","Avoid",NA,"no_press",1,"no_press","no_press",0
"504",2012,"GAEL0180",5,6,7,8,5,1576,873,0,0,"a.sham",2,"no_press",0,"NGL","noGo",1,92,2,4,"neutral","Avoid",NA,"no_press",1,"no_press","no_press",0
"505",2013,"GAEL0180",5,6,7,8,5,5000,523,0,0,"a.sham",2,"no_press",0,"NGL","noGo",1,93,2,5,"neutral","Avoid",NA,"no_press",1,"no_press","no_press",0
"506",2024,"GAEL0180",5,6,7,8,5,1856,596,0,-1,"a.sham",2,"no_press",0,"NGL","noGo",1,104,2,6,"lose","Avoid","lose","no_press",0,NA,"no_press",0
"507",2028,"GAEL0180",5,6,7,8,5,2550,885,0,0,"a.sham",2,"no_press",0,"NGL","noGo",1,108,2,7,"neutral","Avoid",NA,"no_press",1,"no_press","no_press",0
"508",2037,"GAEL0180",5,6,7,8,5,1975,907,0,0,"a.sham",2,"no_press",0,"NGL","noGo",1,117,2,8,"neutral","Avoid",NA,"no_press",1,"no_press","no_press",0
"509",2039,"GAEL0180",5,6,7,8,5,1510,556,0,-1,"a.sham",2,"no_press",0,"NGL","noGo",1,119,2,9,"lose","Avoid","lose","no_press",0,NA,"no_press",0
"510",2051,"GAEL0180",5,6,7,8,5,1279,675,0,0,"a.sham",2,"no_press",0,"NGL","noGo",1,131,2,10,"neutral","Avoid",NA,"no_press",1,"no_press","no_press",0
"511",2058,"GAEL0180",5,6,7,8,5,1898,996,0,0,"a.sham",2,"no_press",0,"NGL","noGo",1,138,2,11,"neutral","Avoid",NA,"no_press",1,"no_press","no_press",0
"512",2060,"GAEL0180",5,6,7,8,5,2420,757,0,0,"a.sham",2,"no_press",0,"NGL","noGo",1,140,2,12,"neutral","Avoid",NA,"no_press",1,"no_press","no_press",0
"513",2062,"GAEL0180",5,6,7,8,5,2180,613,0,-1,"a.sham",2,"no_press",0,"NGL","noGo",1,142,2,13,"lose","Avoid","lose","no_press",0,NA,"no_press",0
"514",2065,"GAEL0180",5,6,7,8,5,2260,686,0,0,"a.sham",2,"no_press",0,"NGL","noGo",1,145,2,14,"neutral","Avoid",NA,"no_press",1,"no_press","no_press",0
"515",2066,"GAEL0180",5,6,7,8,5,1512,794,0,0,"a.sham",2,"no_press",0,"NGL","noGo",1,146,2,15,"neutral","Avoid",NA,"no_press",1,"no_press","no_press",0
"516",2069,"GAEL0180",5,6,7,8,5,1205,708,0,0,"a.sham",2,"no_press",0,"NGL","noGo",1,149,2,16,"neutral","Avoid",NA,"no_press",1,"no_press","no_press",0
"517",2070,"GAEL0180",5,6,7,8,5,1400,972,0,0,"a.sham",2,"no_press",0,"NGL","noGo",1,150,2,17,"neutral","Avoid",NA,"no_press",1,"no_press","no_press",0
"518",2073,"GAEL0180",5,6,7,8,5,2306,584,0,0,"a.sham",2,"no_press",0,"NGL","noGo",1,153,2,18,"neutral","Avoid",NA,"no_press",1,"no_press","no_press",0
"519",2074,"GAEL0180",5,6,7,8,5,2934,972,0,0,"a.sham",2,"no_press",0,"NGL","noGo",1,154,2,19,"neutral","Avoid",NA,"no_press",1,"no_press","no_press",0
"520",2076,"GAEL0180",5,6,7,8,5,1655,674,0,0,"a.sham",2,"no_press",0,"NGL","noGo",1,156,2,20,"neutral","Avoid",NA,"press",1,"press",NA,NA
"521",2082,"GAEL0180",11,10,9,12,11,2583,883,695,-1,"a.sham",2,"press",1,"NGL","noGo",0,162,3,1,"lose","Avoid","lose","no_press",1,"no_press","no_press",0
"522",2083,"GAEL0180",11,10,9,12,11,2275,996,0,0,"a.sham",2,"no_press",0,"NGL","noGo",1,163,3,2,"neutral","Avoid",NA,"no_press",1,"no_press","no_press",0
"523",2087,"GAEL0180",11,10,9,12,11,1919,561,0,0,"a.sham",2,"no_press",0,"NGL","noGo",1,167,3,3,"neutral","Avoid",NA,"no_press",1,"no_press","no_press",0
"524",2091,"GAEL0180",11,10,9,12,11,1000,945,0,0,"a.sham",2,"no_press",0,"NGL","noGo",1,171,3,4,"neutral","Avoid",NA,"no_press",1,"no_press","no_press",0
"525",2106,"GAEL0180",11,10,9,12,11,2599,963,0,-1,"a.sham",2,"no_press",0,"NGL","noGo",1,186,3,5,"lose","Avoid","lose","no_press",0,NA,"no_press",0
"526",2113,"GAEL0180",11,10,9,12,11,2331,671,0,0,"a.sham",2,"no_press",0,"NGL","noGo",1,193,3,6,"neutral","Avoid",NA,"no_press",1,"no_press","no_press",0
"527",2114,"GAEL0180",11,10,9,12,11,1960,698,0,0,"a.sham",2,"no_press",0,"NGL","noGo",1,194,3,7,"neutral","Avoid",NA,"no_press",1,"no_press","no_press",0
"528",2119,"GAEL0180",11,10,9,12,11,2709,812,0,0,"a.sham",2,"no_press",0,"NGL","noGo",1,199,3,8,"neutral","Avoid",NA,"no_press",1,"no_press","no_press",0
"529",2122,"GAEL0180",11,10,9,12,11,2398,721,0,0,"a.sham",2,"no_press",0,"NGL","noGo",1,202,3,9,"neutral","Avoid",NA,"no_press",1,"no_press","no_press",0
"530",2131,"GAEL0180",11,10,9,12,11,2587,927,0,0,"a.sham",2,"no_press",0,"NGL","noGo",1,211,3,10,"neutral","Avoid",NA,"no_press",1,"no_press","no_press",0
"531",2133,"GAEL0180",11,10,9,12,11,1550,894,0,0,"a.sham",2,"no_press",0,"NGL","noGo",1,213,3,11,"neutral","Avoid",NA,"no_press",1,"no_press","no_press",0
"532",2134,"GAEL0180",11,10,9,12,11,1759,749,0,0,"a.sham",2,"no_press",0,"NGL","noGo",1,214,3,12,"neutral","Avoid",NA,"no_press",1,"no_press","no_press",0
"533",2136,"GAEL0180",11,10,9,12,11,2211,625,0,0,"a.sham",2,"no_press",0,"NGL","noGo",1,216,3,13,"neutral","Avoid",NA,"no_press",1,"no_press","no_press",0
"534",2143,"GAEL0180",11,10,9,12,11,2581,745,0,-1,"a.sham",2,"no_press",0,"NGL","noGo",1,223,3,14,"lose","Avoid","lose","no_press",0,NA,"no_press",0
"535",2144,"GAEL0180",11,10,9,12,11,1330,627,0,0,"a.sham",2,"no_press",0,"NGL","noGo",1,224,3,15,"neutral","Avoid",NA,"no_press",1,"no_press","no_press",0
"536",2149,"GAEL0180",11,10,9,12,11,2071,770,0,0,"a.sham",2,"no_press",0,"NGL","noGo",1,229,3,16,"neutral","Avoid",NA,"no_press",1,"no_press","no_press",0
"537",2152,"GAEL0180",11,10,9,12,11,2095,509,0,0,"a.sham",2,"no_press",0,"NGL","noGo",1,232,3,17,"neutral","Avoid",NA,"no_press",1,"no_press","no_press",0
"538",2155,"GAEL0180",11,10,9,12,11,2678,983,0,0,"a.sham",2,"no_press",0,"NGL","noGo",1,235,3,18,"neutral","Avoid",NA,"no_press",1,"no_press","no_press",0
"539",2157,"GAEL0180",11,10,9,12,11,1710,654,0,-1,"a.sham",2,"no_press",0,"NGL","noGo",1,237,3,19,"lose","Avoid","lose","no_press",0,NA,"no_press",0
"540",2160,"GAEL0180",11,10,9,12,11,1556,587,0,-1,"a.sham",2,"no_press",0,"NGL","noGo",1,240,3,20,"lose","Avoid","lose","press",0,NA,NA,NA
"541",2161,"GAEL0180",13,16,15,14,13,2671,893,665,-1,"a.sham",2,"press",1,"NGL","noGo",0,241,4,1,"lose","Avoid","lose","no_press",1,"no_press","no_press",0
"542",2165,"GAEL0180",13,16,15,14,13,1474,996,0,-1,"a.sham",2,"no_press",0,"NGL","noGo",1,245,4,2,"lose","Avoid","lose","no_press",0,NA,"no_press",0
"543",2167,"GAEL0180",13,16,15,14,13,3075,957,0,0,"a.sham",2,"no_press",0,"NGL","noGo",1,247,4,3,"neutral","Avoid",NA,"no_press",1,"no_press","no_press",0
"544",2179,"GAEL0180",13,16,15,14,13,1614,715,0,0,"a.sham",2,"no_press",0,"NGL","noGo",1,259,4,4,"neutral","Avoid",NA,"no_press",1,"no_press","no_press",0
"545",2183,"GAEL0180",13,16,15,14,13,1874,749,0,0,"a.sham",2,"no_press",0,"NGL","noGo",1,263,4,5,"neutral","Avoid",NA,"no_press",1,"no_press","no_press",0
"546",2187,"GAEL0180",13,16,15,14,13,1000,957,0,0,"a.sham",2,"no_press",0,"NGL","noGo",1,267,4,6,"neutral","Avoid",NA,"no_press",1,"no_press","no_press",0
"547",2192,"GAEL0180",13,16,15,14,13,2354,853,0,0,"a.sham",2,"no_press",0,"NGL","noGo",1,272,4,7,"neutral","Avoid",NA,"no_press",1,"no_press","no_press",0
"548",2193,"GAEL0180",13,16,15,14,13,1834,776,0,0,"a.sham",2,"no_press",0,"NGL","noGo",1,273,4,8,"neutral","Avoid",NA,"no_press",1,"no_press","no_press",0
"549",2202,"GAEL0180",13,16,15,14,13,1551,710,0,0,"a.sham",2,"no_press",0,"NGL","noGo",1,282,4,9,"neutral","Avoid",NA,"no_press",1,"no_press","no_press",0
"550",2204,"GAEL0180",13,16,15,14,13,2763,963,0,0,"a.sham",2,"no_press",0,"NGL","noGo",1,284,4,10,"neutral","Avoid",NA,"no_press",1,"no_press","no_press",0
"551",2210,"GAEL0180",13,16,15,14,13,2246,845,0,0,"a.sham",2,"no_press",0,"NGL","noGo",1,290,4,11,"neutral","Avoid",NA,"no_press",1,"no_press","no_press",0
"552",2213,"GAEL0180",13,16,15,14,13,3460,931,0,-1,"a.sham",2,"no_press",0,"NGL","noGo",1,293,4,12,"lose","Avoid","lose","no_press",0,NA,"no_press",0
"553",2216,"GAEL0180",13,16,15,14,13,1815,973,0,0,"a.sham",2,"no_press",0,"NGL","noGo",1,296,4,13,"neutral","Avoid",NA,"no_press",1,"no_press","no_press",0
"554",2217,"GAEL0180",13,16,15,14,13,2289,973,0,0,"a.sham",2,"no_press",0,"NGL","noGo",1,297,4,14,"neutral","Avoid",NA,"no_press",1,"no_press","no_press",0
"555",2220,"GAEL0180",13,16,15,14,13,2335,839,0,0,"a.sham",2,"no_press",0,"NGL","noGo",1,300,4,15,"neutral","Avoid",NA,"no_press",1,"no_press","no_press",0
"556",2221,"GAEL0180",13,16,15,14,13,1623,626,0,-1,"a.sham",2,"no_press",0,"NGL","noGo",1,301,4,16,"lose","Avoid","lose","no_press",0,NA,"no_press",0
"557",2225,"GAEL0180",13,16,15,14,13,1880,640,0,0,"a.sham",2,"no_press",0,"NGL","noGo",1,305,4,17,"neutral","Avoid",NA,"no_press",1,"no_press","no_press",0
"558",2228,"GAEL0180",13,16,15,14,13,1706,883,0,0,"a.sham",2,"no_press",0,"NGL","noGo",1,308,4,18,"neutral","Avoid",NA,"no_press",1,"no_press","no_press",0
"559",2230,"GAEL0180",13,16,15,14,13,1447,743,0,0,"a.sham",2,"no_press",0,"NGL","noGo",1,310,4,19,"neutral","Avoid",NA,"no_press",1,"no_press","no_press",0
"560",2232,"GAEL0180",13,16,15,14,13,1382,516,0,0,"a.sham",2,"no_press",0,"NGL","noGo",1,312,4,20,"neutral","Avoid",NA,NA,1,NA,NA,NA
"561",2243,"JAKA0154",1,4,3,2,1,2324,962,845,-1,"a.sham",2,"press",1,"NGL","noGo",0,3,1,1,"lose","Avoid","lose","no_press",1,"no_press","no_press",0
"562",2245,"JAKA0154",1,4,3,2,1,2039,832,0,-1,"a.sham",2,"no_press",0,"NGL","noGo",1,5,1,2,"lose","Avoid","lose","press",0,NA,"press",1
"563",2251,"JAKA0154",1,4,3,2,1,2243,828,731,-1,"a.sham",2,"press",1,"NGL","noGo",0,11,1,3,"lose","Avoid","lose","no_press",1,"no_press","no_press",0
"564",2253,"JAKA0154",1,4,3,2,1,1474,864,0,0,"a.sham",2,"no_press",0,"NGL","noGo",1,13,1,4,"neutral","Avoid",NA,"no_press",1,"no_press","no_press",0
"565",2259,"JAKA0154",1,4,3,2,1,1478,615,0,0,"a.sham",2,"no_press",0,"NGL","noGo",1,19,1,5,"neutral","Avoid",NA,"no_press",1,"no_press","no_press",0
"566",2265,"JAKA0154",1,4,3,2,1,1439,547,0,0,"a.sham",2,"no_press",0,"NGL","noGo",1,25,1,6,"neutral","Avoid",NA,"press",1,"press","press",1
"567",2266,"JAKA0154",1,4,3,2,1,1755,763,609,-1,"a.sham",2,"press",1,"NGL","noGo",0,26,1,7,"lose","Avoid","lose","no_press",1,"no_press","no_press",0
"568",2267,"JAKA0154",1,4,3,2,1,2202,580,0,-1,"a.sham",2,"no_press",0,"NGL","noGo",1,27,1,8,"lose","Avoid","lose","press",0,NA,"press",1
"569",2268,"JAKA0154",1,4,3,2,1,2295,841,664,-1,"a.sham",2,"press",1,"NGL","noGo",0,28,1,9,"lose","Avoid","lose","no_press",1,"no_press","no_press",0
"570",2272,"JAKA0154",1,4,3,2,1,2140,728,0,0,"a.sham",2,"no_press",0,"NGL","noGo",1,32,1,10,"neutral","Avoid",NA,"no_press",1,"no_press","no_press",0
"571",2282,"JAKA0154",1,4,3,2,1,1985,997,0,0,"a.sham",2,"no_press",0,"NGL","noGo",1,42,1,11,"neutral","Avoid",NA,"no_press",1,"no_press","no_press",0
"572",2285,"JAKA0154",1,4,3,2,1,3539,791,0,0,"a.sham",2,"no_press",0,"NGL","noGo",1,45,1,12,"neutral","Avoid",NA,"press",1,"press","press",1
"573",2286,"JAKA0154",1,4,3,2,1,1576,989,1025,-1,"a.sham",2,"press",1,"NGL","noGo",0,46,1,13,"lose","Avoid","lose","no_press",1,"no_press","no_press",0
"574",2289,"JAKA0154",1,4,3,2,1,1979,853,0,0,"a.sham",2,"no_press",0,"NGL","noGo",1,49,1,14,"neutral","Avoid",NA,"no_press",1,"no_press","no_press",0
"575",2293,"JAKA0154",1,4,3,2,1,1000,904,0,-1,"a.sham",2,"no_press",0,"NGL","noGo",1,53,1,15,"lose","Avoid","lose","press",0,NA,"press",1
"576",2303,"JAKA0154",1,4,3,2,1,1960,941,532,-1,"a.sham",2,"press",1,"NGL","noGo",0,63,1,16,"lose","Avoid","lose","no_press",1,"no_press","no_press",0
"577",2308,"JAKA0154",1,4,3,2,1,1502,567,0,0,"a.sham",2,"no_press",0,"NGL","noGo",1,68,1,17,"neutral","Avoid",NA,"no_press",1,"no_press","no_press",0
"578",2314,"JAKA0154",1,4,3,2,1,2403,745,0,0,"a.sham",2,"no_press",0,"NGL","noGo",1,74,1,18,"neutral","Avoid",NA,"no_press",1,"no_press","no_press",0
"579",2316,"JAKA0154",1,4,3,2,1,2147,753,0,0,"a.sham",2,"no_press",0,"NGL","noGo",1,76,1,19,"neutral","Avoid",NA,"no_press",1,"no_press","no_press",0
"580",2320,"JAKA0154",1,4,3,2,1,1614,899,0,0,"a.sham",2,"no_press",0,"NGL","noGo",1,80,1,20,"neutral","Avoid",NA,"no_press",1,"no_press",NA,NA
"581",2323,"JAKA0154",7,8,5,6,7,3107,772,0,0,"a.sham",2,"no_press",0,"NGL","noGo",1,83,2,1,"neutral","Avoid",NA,"press",1,"press","press",1
"582",2324,"JAKA0154",7,8,5,6,7,2074,588,679,-1,"a.sham",2,"press",1,"NGL","noGo",0,84,2,2,"lose","Avoid","lose","press",1,"press","press",1
"583",2326,"JAKA0154",7,8,5,6,7,1823,990,833,-1,"a.sham",2,"press",1,"NGL","noGo",0,86,2,3,"lose","Avoid","lose","no_press",1,"no_press","no_press",0
"584",2329,"JAKA0154",7,8,5,6,7,2564,678,0,-1,"a.sham",2,"no_press",0,"NGL","noGo",1,89,2,4,"lose","Avoid","lose","press",0,NA,"press",1
"585",2334,"JAKA0154",7,8,5,6,7,2173,931,1417,-1,"a.sham",2,"press",1,"NGL","noGo",0,94,2,5,"lose","Avoid","lose","press",1,"press","press",1
"586",2338,"JAKA0154",7,8,5,6,7,2211,932,705,-1,"a.sham",2,"press",1,"NGL","noGo",0,98,2,6,"lose","Avoid","lose","no_press",1,"no_press","no_press",0
"587",2342,"JAKA0154",7,8,5,6,7,1427,805,0,0,"a.sham",2,"no_press",0,"NGL","noGo",1,102,2,7,"neutral","Avoid",NA,"press",1,"press","press",1
"588",2345,"JAKA0154",7,8,5,6,7,2958,727,1497,-1,"a.sham",2,"press",1,"NGL","noGo",0,105,2,8,"lose","Avoid","lose","no_press",1,"no_press","no_press",0
"589",2346,"JAKA0154",7,8,5,6,7,1666,857,0,-1,"a.sham",2,"no_press",0,"NGL","noGo",1,106,2,9,"lose","Avoid","lose","press",0,NA,"press",1
"590",2350,"JAKA0154",7,8,5,6,7,2365,718,966,-1,"a.sham",2,"press",1,"NGL","noGo",0,110,2,10,"lose","Avoid","lose","no_press",1,"no_press","no_press",0
"591",2362,"JAKA0154",7,8,5,6,7,2413,912,0,0,"a.sham",2,"no_press",0,"NGL","noGo",1,122,2,11,"neutral","Avoid",NA,"no_press",1,"no_press","no_press",0
"592",2363,"JAKA0154",7,8,5,6,7,2336,709,0,-1,"a.sham",2,"no_press",0,"NGL","noGo",1,123,2,12,"lose","Avoid","lose","no_press",0,NA,"no_press",0
"593",2369,"JAKA0154",7,8,5,6,7,3435,943,0,-1,"a.sham",2,"no_press",0,"NGL","noGo",1,129,2,13,"lose","Avoid","lose","no_press",0,NA,"no_press",0
"594",2374,"JAKA0154",7,8,5,6,7,2232,734,0,0,"a.sham",2,"no_press",0,"NGL","noGo",1,134,2,14,"neutral","Avoid",NA,"no_press",1,"no_press","no_press",0
"595",2377,"JAKA0154",7,8,5,6,7,1556,648,0,0,"a.sham",2,"no_press",0,"NGL","noGo",1,137,2,15,"neutral","Avoid",NA,"no_press",1,"no_press","no_press",0
"596",2378,"JAKA0154",7,8,5,6,7,3094,954,0,0,"a.sham",2,"no_press",0,"NGL","noGo",1,138,2,16,"neutral","Avoid",NA,"no_press",1,"no_press","no_press",0
"597",2387,"JAKA0154",7,8,5,6,7,2460,780,0,0,"a.sham",2,"no_press",0,"NGL","noGo",1,147,2,17,"neutral","Avoid",NA,"no_press",1,"no_press","no_press",0
"598",2390,"JAKA0154",7,8,5,6,7,2057,750,0,0,"a.sham",2,"no_press",0,"NGL","noGo",1,150,2,18,"neutral","Avoid",NA,"no_press",1,"no_press","no_press",0
"599",2391,"JAKA0154",7,8,5,6,7,2435,698,0,0,"a.sham",2,"no_press",0,"NGL","noGo",1,151,2,19,"neutral","Avoid",NA,"no_press",1,"no_press","no_press",0
"600",2400,"JAKA0154",7,8,5,6,7,1474,559,0,0,"a.sham",2,"no_press",0,"NGL","noGo",1,160,2,20,"neutral","Avoid",NA,"no_press",1,"no_press",NA,NA
"601",2401,"JAKA0154",11,10,9,12,11,2138,890,0,0,"a.sham",2,"no_press",0,"NGL","noGo",1,161,3,1,"neutral","Avoid",NA,"press",1,"press","press",1
"602",2404,"JAKA0154",11,10,9,12,11,1873,964,1296,-1,"a.sham",2,"press",1,"NGL","noGo",0,164,3,2,"lose","Avoid","lose","no_press",1,"no_press","no_press",0
"603",2411,"JAKA0154",11,10,9,12,11,2031,666,0,0,"a.sham",2,"no_press",0,"NGL","noGo",1,171,3,3,"neutral","Avoid",NA,"press",1,"press","press",1
"604",2417,"JAKA0154",11,10,9,12,11,1759,594,896,-1,"a.sham",2,"press",1,"NGL","noGo",0,177,3,4,"lose","Avoid","lose","no_press",1,"no_press","no_press",0
"605",2418,"JAKA0154",11,10,9,12,11,1819,515,0,0,"a.sham",2,"no_press",0,"NGL","noGo",1,178,3,5,"neutral","Avoid",NA,"no_press",1,"no_press","no_press",0
"606",2419,"JAKA0154",11,10,9,12,11,1813,672,0,0,"a.sham",2,"no_press",0,"NGL","noGo",1,179,3,6,"neutral","Avoid",NA,"no_press",1,"no_press","no_press",0
"607",2424,"JAKA0154",11,10,9,12,11,1512,749,0,0,"a.sham",2,"no_press",0,"NGL","noGo",1,184,3,7,"neutral","Avoid",NA,"no_press",1,"no_press","no_press",0
"608",2427,"JAKA0154",11,10,9,12,11,1300,877,0,-1,"a.sham",2,"no_press",0,"NGL","noGo",1,187,3,8,"lose","Avoid","lose","no_press",0,NA,"no_press",0
"609",2435,"JAKA0154",11,10,9,12,11,3057,878,0,-1,"a.sham",2,"no_press",0,"NGL","noGo",1,195,3,9,"lose","Avoid","lose","no_press",0,NA,"no_press",0
"610",2452,"JAKA0154",11,10,9,12,11,2266,906,0,0,"a.sham",2,"no_press",0,"NGL","noGo",1,212,3,10,"neutral","Avoid",NA,"no_press",1,"no_press","no_press",0
"611",2453,"JAKA0154",11,10,9,12,11,1623,517,0,0,"a.sham",2,"no_press",0,"NGL","noGo",1,213,3,11,"neutral","Avoid",NA,"no_press",1,"no_press","no_press",0
"612",2458,"JAKA0154",11,10,9,12,11,2086,585,0,0,"a.sham",2,"no_press",0,"NGL","noGo",1,218,3,12,"neutral","Avoid",NA,"no_press",1,"no_press","no_press",0
"613",2459,"JAKA0154",11,10,9,12,11,1582,692,0,-1,"a.sham",2,"no_press",0,"NGL","noGo",1,219,3,13,"lose","Avoid","lose","no_press",0,NA,"no_press",0
"614",2461,"JAKA0154",11,10,9,12,11,1000,661,0,-1,"a.sham",2,"no_press",0,"NGL","noGo",1,221,3,14,"lose","Avoid","lose","no_press",0,NA,"no_press",0
"615",2469,"JAKA0154",11,10,9,12,11,2289,731,0,0,"a.sham",2,"no_press",0,"NGL","noGo",1,229,3,15,"neutral","Avoid",NA,"no_press",1,"no_press","no_press",0
"616",2472,"JAKA0154",11,10,9,12,11,1528,866,0,0,"a.sham",2,"no_press",0,"NGL","noGo",1,232,3,16,"neutral","Avoid",NA,"no_press",1,"no_press","no_press",0
"617",2473,"JAKA0154",11,10,9,12,11,2520,984,0,0,"a.sham",2,"no_press",0,"NGL","noGo",1,233,3,17,"neutral","Avoid",NA,"no_press",1,"no_press","no_press",0
"618",2475,"JAKA0154",11,10,9,12,11,1592,696,0,0,"a.sham",2,"no_press",0,"NGL","noGo",1,235,3,18,"neutral","Avoid",NA,"no_press",1,"no_press","no_press",0
"619",2478,"JAKA0154",11,10,9,12,11,1856,941,0,0,"a.sham",2,"no_press",0,"NGL","noGo",1,238,3,19,"neutral","Avoid",NA,"no_press",1,"no_press","no_press",0
"620",2480,"JAKA0154",11,10,9,12,11,1871,572,0,0,"a.sham",2,"no_press",0,"NGL","noGo",1,240,3,20,"neutral","Avoid",NA,"no_press",1,"no_press",NA,NA
"621",2481,"JAKA0154",15,14,13,16,15,2353,625,0,0,"a.sham",2,"no_press",0,"NGL","noGo",1,241,4,1,"neutral","Avoid",NA,"no_press",1,"no_press","no_press",0
"622",2485,"JAKA0154",15,14,13,16,15,1343,793,0,0,"a.sham",2,"no_press",0,"NGL","noGo",1,245,4,2,"neutral","Avoid",NA,"no_press",1,"no_press","no_press",0
"623",2492,"JAKA0154",15,14,13,16,15,1898,852,0,0,"a.sham",2,"no_press",0,"NGL","noGo",1,252,4,3,"neutral","Avoid",NA,"no_press",1,"no_press","no_press",0
"624",2494,"JAKA0154",15,14,13,16,15,2907,770,0,-1,"a.sham",2,"no_press",0,"NGL","noGo",1,254,4,4,"lose","Avoid","lose","press",0,NA,"press",1
"625",2498,"JAKA0154",15,14,13,16,15,2525,983,1023,0,"a.sham",2,"press",1,"NGL","noGo",0,258,4,5,"neutral","Avoid",NA,"press",0,NA,"press",1
"626",2499,"JAKA0154",15,14,13,16,15,1550,831,666,-1,"a.sham",2,"press",1,"NGL","noGo",0,259,4,6,"lose","Avoid","lose","no_press",1,"no_press","no_press",0
"627",2501,"JAKA0154",15,14,13,16,15,2335,974,0,0,"a.sham",2,"no_press",0,"NGL","noGo",1,261,4,7,"neutral","Avoid",NA,"press",1,"press","press",1
"628",2502,"JAKA0154",15,14,13,16,15,1254,967,844,-1,"a.sham",2,"press",1,"NGL","noGo",0,262,4,8,"lose","Avoid","lose","no_press",1,"no_press","no_press",0
"629",2506,"JAKA0154",15,14,13,16,15,1207,712,0,0,"a.sham",2,"no_press",0,"NGL","noGo",1,266,4,9,"neutral","Avoid",NA,"no_press",1,"no_press","no_press",0
"630",2507,"JAKA0154",15,14,13,16,15,1469,716,0,0,"a.sham",2,"no_press",0,"NGL","noGo",1,267,4,10,"neutral","Avoid",NA,"no_press",1,"no_press","no_press",0
"631",2513,"JAKA0154",15,14,13,16,15,1759,682,0,0,"a.sham",2,"no_press",0,"NGL","noGo",1,273,4,11,"neutral","Avoid",NA,"no_press",1,"no_press","no_press",0
"632",2516,"JAKA0154",15,14,13,16,15,1737,947,0,0,"a.sham",2,"no_press",0,"NGL","noGo",1,276,4,12,"neutral","Avoid",NA,"no_press",1,"no_press","no_press",0
"633",2518,"JAKA0154",15,14,13,16,15,1181,986,0,-1,"a.sham",2,"no_press",0,"NGL","noGo",1,278,4,13,"lose","Avoid","lose","press",0,NA,"press",1
"634",2523,"JAKA0154",15,14,13,16,15,2642,688,545,-1,"a.sham",2,"press",1,"NGL","noGo",0,283,4,14,"lose","Avoid","lose","no_press",1,"no_press","no_press",0
"635",2529,"JAKA0154",15,14,13,16,15,2936,561,0,-1,"a.sham",2,"no_press",0,"NGL","noGo",1,289,4,15,"lose","Avoid","lose","no_press",0,NA,"no_press",0
"636",2530,"JAKA0154",15,14,13,16,15,1418,613,0,0,"a.sham",2,"no_press",0,"NGL","noGo",1,290,4,16,"neutral","Avoid",NA,"no_press",1,"no_press","no_press",0
"637",2531,"JAKA0154",15,14,13,16,15,2420,954,0,0,"a.sham",2,"no_press",0,"NGL","noGo",1,291,4,17,"neutral","Avoid",NA,"no_press",1,"no_press","no_press",0
"638",2532,"JAKA0154",15,14,13,16,15,2331,996,0,0,"a.sham",2,"no_press",0,"NGL","noGo",1,292,4,18,"neutral","Avoid",NA,"no_press",1,"no_press","no_press",0
"639",2533,"JAKA0154",15,14,13,16,15,2059,982,0,0,"a.sham",2,"no_press",0,"NGL","noGo",1,293,4,19,"neutral","Avoid",NA,"no_press",1,"no_press","no_press",0
"640",2534,"JAKA0154",15,14,13,16,15,3659,891,0,0,"a.sham",2,"no_press",0,"NGL","noGo",1,294,4,20,"neutral","Avoid",NA,NA,1,NA,NA,NA
"641",2562,"JYDF0098",1,4,3,2,1,1382,703,575,-1,"a.sham",2,"press",1,"NGL","noGo",0,2,1,1,"lose","Avoid","lose","press",1,"press","press",1
"642",2563,"JYDF0098",1,4,3,2,1,2190,904,493,-1,"a.sham",2,"press",1,"NGL","noGo",0,3,1,2,"lose","Avoid","lose","no_press",1,"no_press","no_press",0
"643",2564,"JYDF0098",1,4,3,2,1,1528,959,0,0,"a.sham",2,"no_press",0,"NGL","noGo",1,4,1,3,"neutral","Avoid",NA,"no_press",1,"no_press","no_press",0
"644",2570,"JYDF0098",1,4,3,2,1,1660,878,0,0,"a.sham",2,"no_press",0,"NGL","noGo",1,10,1,4,"neutral","Avoid",NA,"no_press",1,"no_press","no_press",0
"645",2572,"JYDF0098",1,4,3,2,1,3024,946,0,0,"a.sham",2,"no_press",0,"NGL","noGo",1,12,1,5,"neutral","Avoid",NA,"no_press",1,"no_press","no_press",0
"646",2575,"JYDF0098",1,4,3,2,1,1349,927,0,0,"a.sham",2,"no_press",0,"NGL","noGo",1,15,1,6,"neutral","Avoid",NA,"no_press",1,"no_press","no_press",0
"647",2576,"JYDF0098",1,4,3,2,1,2086,797,0,0,"a.sham",2,"no_press",0,"NGL","noGo",1,16,1,7,"neutral","Avoid",NA,"no_press",1,"no_press","no_press",0
"648",2582,"JYDF0098",1,4,3,2,1,2413,941,0,0,"a.sham",2,"no_press",0,"NGL","noGo",1,22,1,8,"neutral","Avoid",NA,"no_press",1,"no_press","no_press",0
"649",2596,"JYDF0098",1,4,3,2,1,1815,628,0,0,"a.sham",2,"no_press",0,"NGL","noGo",1,36,1,9,"neutral","Avoid",NA,"no_press",1,"no_press","no_press",0
"650",2598,"JYDF0098",1,4,3,2,1,1666,757,0,0,"a.sham",2,"no_press",0,"NGL","noGo",1,38,1,10,"neutral","Avoid",NA,"press",1,"press","press",1
"651",2601,"JYDF0098",1,4,3,2,1,1733,544,774,-1,"a.sham",2,"press",1,"NGL","noGo",0,41,1,11,"lose","Avoid","lose","no_press",1,"no_press","no_press",0
"652",2607,"JYDF0098",1,4,3,2,1,1512,638,0,0,"a.sham",2,"no_press",0,"NGL","noGo",1,47,1,12,"neutral","Avoid",NA,"no_press",1,"no_press","no_press",0
"653",2610,"JYDF0098",1,4,3,2,1,1198,923,0,-1,"a.sham",2,"no_press",0,"NGL","noGo",1,50,1,13,"lose","Avoid","lose","no_press",0,NA,"no_press",0
"654",2614,"JYDF0098",1,4,3,2,1,2289,634,0,-1,"a.sham",2,"no_press",0,"NGL","noGo",1,54,1,14,"lose","Avoid","lose","no_press",0,NA,"no_press",0
"655",2616,"JYDF0098",1,4,3,2,1,2054,680,0,-1,"a.sham",2,"no_press",0,"NGL","noGo",1,56,1,15,"lose","Avoid","lose","no_press",0,NA,"no_press",0
"656",2623,"JYDF0098",1,4,3,2,1,3539,645,0,0,"a.sham",2,"no_press",0,"NGL","noGo",1,63,1,16,"neutral","Avoid",NA,"no_press",1,"no_press","no_press",0
"657",2626,"JYDF0098",1,4,3,2,1,1301,943,0,0,"a.sham",2,"no_press",0,"NGL","noGo",1,66,1,17,"neutral","Avoid",NA,"no_press",1,"no_press","no_press",0
"658",2630,"JYDF0098",1,4,3,2,1,2332,907,0,0,"a.sham",2,"no_press",0,"NGL","noGo",1,70,1,18,"neutral","Avoid",NA,"no_press",1,"no_press","no_press",0
"659",2632,"JYDF0098",1,4,3,2,1,1584,643,0,0,"a.sham",2,"no_press",0,"NGL","noGo",1,72,1,19,"neutral","Avoid",NA,"no_press",1,"no_press","no_press",0
"660",2636,"JYDF0098",1,4,3,2,1,1503,606,0,0,"a.sham",2,"no_press",0,"NGL","noGo",1,76,1,20,"neutral","Avoid",NA,"press",1,"press",NA,NA
"661",2651,"JYDF0098",5,6,7,8,5,2086,839,583,-1,"a.sham",2,"press",1,"NGL","noGo",0,91,2,1,"lose","Avoid","lose","no_press",1,"no_press","no_press",0
"662",2652,"JYDF0098",5,6,7,8,5,2484,937,0,0,"a.sham",2,"no_press",0,"NGL","noGo",1,92,2,2,"neutral","Avoid",NA,"no_press",1,"no_press","no_press",0
