"","...1","ID","stim_ID","GW","GAL","NGW","NGL","jitter1","jitter2","RT","outcomefeed","condition","session","response","GoResponse","Cue","req_action","correct","trial_number","block","TrialCount","feedback","OutValence","salient","followup_beha","correct_feedback","followup_response","next_action","next_action_binary"
"1",6,"AAAA0432",2,4,1,2,3,2038,688,1088,1,"a.sham",3,"press",1,"NGW","noGo",0,6,1,1,"win","Win","win","no_press",0,NA,NA,NA
"2",11,"AAAA0432",2,4,1,2,3,2659,603,0,1,"a.sham",3,"no_press",0,"NGW","noGo",1,11,1,2,"win","Win","win","press",1,"press","press",1
"3",12,"AAAA0432",2,4,1,2,3,2454,882,904,1,"a.sham",3,"press",1,"NGW","noGo",0,12,1,3,"win","Win","win","press",0,NA,"press",1
"4",16,"AAAA0432",2,4,1,2,3,1819,665,991,0,"a.sham",3,"press",1,"NGW","noGo",0,16,1,4,"neutral","Win",NA,"no_press",1,"no_press","no_press",0
"5",20,"AAAA0432",2,4,1,2,3,1840,907,0,1,"a.sham",3,"no_press",0,"NGW","noGo",1,20,1,5,"win","Win","win","no_press",1,"no_press","no_press",0
"6",29,"AAAA0432",2,4,1,2,3,2158,677,0,0,"a.sham",3,"no_press",0,"NGW","noGo",1,29,1,6,"neutral","Win",NA,"no_press",0,NA,"no_press",0
"7",30,"AAAA0432",2,4,1,2,3,2415,812,0,1,"a.sham",3,"no_press",0,"NGW","noGo",1,30,1,7,"win","Win","win","no_press",1,"no_press","no_press",0
"8",32,"AAAA0432",2,4,1,2,3,1982,526,0,1,"a.sham",3,"no_press",0,"NGW","noGo",1,32,1,8,"win","Win","win","no_press",1,"no_press","no_press",0
"9",33,"AAAA0432",2,4,1,2,3,2632,891,0,1,"a.sham",3,"no_press",0,"NGW","noGo",1,33,1,9,"win","Win","win","no_press",1,"no_press","no_press",0
"10",34,"AAAA0432",2,4,1,2,3,1752,602,0,0,"a.sham",3,"no_press",0,"NGW","noGo",1,34,1,10,"neutral","Win",NA,"no_press",0,NA,"no_press",0
"11",38,"AAAA0432",2,4,1,2,3,2267,883,0,1,"a.sham",3,"no_press",0,"NGW","noGo",1,38,1,11,"win","Win","win","no_press",1,"no_press","no_press",0
"12",40,"AAAA0432",2,4,1,2,3,2247,604,0,1,"a.sham",3,"no_press",0,"NGW","noGo",1,40,1,12,"win","Win","win","no_press",1,"no_press","no_press",0
"13",42,"AAAA0432",2,4,1,2,3,1768,709,0,1,"a.sham",3,"no_press",0,"NGW","noGo",1,42,1,13,"win","Win","win","no_press",1,"no_press","no_press",0
"14",49,"AAAA0432",2,4,1,2,3,2083,903,0,1,"a.sham",3,"no_press",0,"NGW","noGo",1,49,1,14,"win","Win","win","no_press",1,"no_press","no_press",0
"15",60,"AAAA0432",2,4,1,2,3,2125,598,0,1,"a.sham",3,"no_press",0,"NGW","noGo",1,60,1,15,"win","Win","win","no_press",1,"no_press","no_press",0
"16",61,"AAAA0432",2,4,1,2,3,2527,525,0,1,"a.sham",3,"no_press",0,"NGW","noGo",1,61,1,16,"win","Win","win","no_press",1,"no_press","no_press",0
"17",63,"AAAA0432",2,4,1,2,3,2172,897,0,1,"a.sham",3,"no_press",0,"NGW","noGo",1,63,1,17,"win","Win","win","no_press",1,"no_press","no_press",0
"18",64,"AAAA0432",2,4,1,2,3,1817,928,0,1,"a.sham",3,"no_press",0,"NGW","noGo",1,64,1,18,"win","Win","win","no_press",1,"no_press","no_press",0
"19",67,"AAAA0432",2,4,1,2,3,2314,738,0,1,"a.sham",3,"no_press",0,"NGW","noGo",1,67,1,19,"win","Win","win","no_press",1,"no_press","no_press",0
"20",69,"AAAA0432",2,4,1,2,3,1949,871,0,1,"a.sham",3,"no_press",0,"NGW","noGo",1,69,1,20,"win","Win","win","press",1,"press",NA,NA
"21",82,"AAAA0432",8,6,7,8,5,1196,946,1050,0,"a.sham",3,"press",1,"NGW","noGo",0,82,2,1,"neutral","Win",NA,"press",1,"press","press",1
"22",84,"AAAA0432",8,6,7,8,5,1000,899,1394,0,"a.sham",3,"press",1,"NGW","noGo",0,84,2,2,"neutral","Win",NA,"no_press",1,"no_press","no_press",0
"23",86,"AAAA0432",8,6,7,8,5,1616,842,0,1,"a.sham",3,"no_press",0,"NGW","noGo",1,86,2,3,"win","Win","win","no_press",1,"no_press","no_press",0
"24",95,"AAAA0432",8,6,7,8,5,2547,820,0,1,"a.sham",3,"no_press",0,"NGW","noGo",1,95,2,4,"win","Win","win","no_press",1,"no_press","no_press",0
"25",103,"AAAA0432",8,6,7,8,5,3087,838,0,1,"a.sham",3,"no_press",0,"NGW","noGo",1,103,2,5,"win","Win","win","no_press",1,"no_press","no_press",0
"26",106,"AAAA0432",8,6,7,8,5,1857,854,0,1,"a.sham",3,"no_press",0,"NGW","noGo",1,106,2,6,"win","Win","win","no_press",1,"no_press","no_press",0
"27",109,"AAAA0432",8,6,7,8,5,1279,923,0,0,"a.sham",3,"no_press",0,"NGW","noGo",1,109,2,7,"neutral","Win",NA,"no_press",0,NA,"no_press",0
"28",111,"AAAA0432",8,6,7,8,5,1530,814,0,0,"a.sham",3,"no_press",0,"NGW","noGo",1,111,2,8,"neutral","Win",NA,"no_press",0,NA,"no_press",0
"29",112,"AAAA0432",8,6,7,8,5,1756,572,0,1,"a.sham",3,"no_press",0,"NGW","noGo",1,112,2,9,"win","Win","win","no_press",1,"no_press","no_press",0
"30",113,"AAAA0432",8,6,7,8,5,1000,968,0,1,"a.sham",3,"no_press",0,"NGW","noGo",1,113,2,10,"win","Win","win","no_press",1,"no_press","no_press",0
"31",114,"AAAA0432",8,6,7,8,5,2205,669,0,1,"a.sham",3,"no_press",0,"NGW","noGo",1,114,2,11,"win","Win","win","no_press",1,"no_press","no_press",0
"32",118,"AAAA0432",8,6,7,8,5,2090,564,0,1,"a.sham",3,"no_press",0,"NGW","noGo",1,118,2,12,"win","Win","win","no_press",1,"no_press","no_press",0
"33",120,"AAAA0432",8,6,7,8,5,2383,548,0,1,"a.sham",3,"no_press",0,"NGW","noGo",1,120,2,13,"win","Win","win","no_press",1,"no_press","no_press",0
"34",122,"AAAA0432",8,6,7,8,5,1469,877,0,1,"a.sham",3,"no_press",0,"NGW","noGo",1,122,2,14,"win","Win","win","no_press",1,"no_press","no_press",0
"35",126,"AAAA0432",8,6,7,8,5,2223,514,0,1,"a.sham",3,"no_press",0,"NGW","noGo",1,126,2,15,"win","Win","win","no_press",1,"no_press","no_press",0
"36",129,"AAAA0432",8,6,7,8,5,3465,587,0,0,"a.sham",3,"no_press",0,"NGW","noGo",1,129,2,16,"neutral","Win",NA,"no_press",0,NA,"no_press",0
"37",148,"AAAA0432",8,6,7,8,5,1928,736,0,1,"a.sham",3,"no_press",0,"NGW","noGo",1,148,2,17,"win","Win","win","no_press",1,"no_press","no_press",0
"38",150,"AAAA0432",8,6,7,8,5,2031,824,0,0,"a.sham",3,"no_press",0,"NGW","noGo",1,150,2,18,"neutral","Win",NA,"no_press",0,NA,"no_press",0
"39",158,"AAAA0432",8,6,7,8,5,1801,870,0,1,"a.sham",3,"no_press",0,"NGW","noGo",1,158,2,19,"win","Win","win","no_press",1,"no_press","no_press",0
"40",160,"AAAA0432",8,6,7,8,5,2579,580,0,1,"a.sham",3,"no_press",0,"NGW","noGo",1,160,2,20,"win","Win","win","no_press",1,"no_press",NA,NA
"41",163,"AAAA0432",12,10,11,12,9,1000,762,0,1,"a.sham",3,"no_press",0,"NGW","noGo",1,163,3,1,"win","Win","win","no_press",1,"no_press","no_press",0
"42",175,"AAAA0432",12,10,11,12,9,1800,690,0,1,"a.sham",3,"no_press",0,"NGW","noGo",1,175,3,2,"win","Win","win","no_press",1,"no_press","no_press",0
"43",178,"AAAA0432",12,10,11,12,9,1742,764,0,1,"a.sham",3,"no_press",0,"NGW","noGo",1,178,3,3,"win","Win","win","no_press",1,"no_press","no_press",0
"44",179,"AAAA0432",12,10,11,12,9,2330,750,0,1,"a.sham",3,"no_press",0,"NGW","noGo",1,179,3,4,"win","Win","win","no_press",1,"no_press","no_press",0
"45",184,"AAAA0432",12,10,11,12,9,2813,542,0,1,"a.sham",3,"no_press",0,"NGW","noGo",1,184,3,5,"win","Win","win","no_press",1,"no_press","no_press",0
"46",189,"AAAA0432",12,10,11,12,9,2256,533,0,0,"a.sham",3,"no_press",0,"NGW","noGo",1,189,3,6,"neutral","Win",NA,"no_press",0,NA,"no_press",0
"47",194,"AAAA0432",12,10,11,12,9,1948,842,0,0,"a.sham",3,"no_press",0,"NGW","noGo",1,194,3,7,"neutral","Win",NA,"no_press",0,NA,"no_press",0
"48",205,"AAAA0432",12,10,11,12,9,1772,955,0,1,"a.sham",3,"no_press",0,"NGW","noGo",1,205,3,8,"win","Win","win","no_press",1,"no_press","no_press",0
"49",206,"AAAA0432",12,10,11,12,9,2241,595,0,1,"a.sham",3,"no_press",0,"NGW","noGo",1,206,3,9,"win","Win","win","no_press",1,"no_press","no_press",0
"50",215,"AAAA0432",12,10,11,12,9,1513,767,0,1,"a.sham",3,"no_press",0,"NGW","noGo",1,215,3,10,"win","Win","win","no_press",1,"no_press","no_press",0
"51",217,"AAAA0432",12,10,11,12,9,1780,660,0,1,"a.sham",3,"no_press",0,"NGW","noGo",1,217,3,11,"win","Win","win","no_press",1,"no_press","no_press",0
"52",221,"AAAA0432",12,10,11,12,9,1873,1000,0,1,"a.sham",3,"no_press",0,"NGW","noGo",1,221,3,12,"win","Win","win","no_press",1,"no_press","no_press",0
"53",223,"AAAA0432",12,10,11,12,9,1681,500,0,1,"a.sham",3,"no_press",0,"NGW","noGo",1,223,3,13,"win","Win","win","no_press",1,"no_press","no_press",0
"54",225,"AAAA0432",12,10,11,12,9,3823,885,0,1,"a.sham",3,"no_press",0,"NGW","noGo",1,225,3,14,"win","Win","win","no_press",1,"no_press","no_press",0
"55",230,"AAAA0432",12,10,11,12,9,1649,924,0,1,"a.sham",3,"no_press",0,"NGW","noGo",1,230,3,15,"win","Win","win","no_press",1,"no_press","no_press",0
"56",233,"AAAA0432",12,10,11,12,9,1367,551,0,0,"a.sham",3,"no_press",0,"NGW","noGo",1,233,3,16,"neutral","Win",NA,"no_press",0,NA,"no_press",0
"57",237,"AAAA0432",12,10,11,12,9,1748,580,0,0,"a.sham",3,"no_press",0,"NGW","noGo",1,237,3,17,"neutral","Win",NA,"no_press",0,NA,"no_press",0
"58",238,"AAAA0432",12,10,11,12,9,2208,998,0,1,"a.sham",3,"no_press",0,"NGW","noGo",1,238,3,18,"win","Win","win","no_press",1,"no_press","no_press",0
"59",239,"AAAA0432",12,10,11,12,9,1753,940,0,1,"a.sham",3,"no_press",0,"NGW","noGo",1,239,3,19,"win","Win","win","no_press",1,"no_press","no_press",0
"60",240,"AAAA0432",12,10,11,12,9,1439,509,0,1,"a.sham",3,"no_press",0,"NGW","noGo",1,240,3,20,"win","Win","win","press",1,"press",NA,NA
"61",241,"AAAA0432",14,16,15,14,13,1946,711,1091,0,"a.sham",3,"press",1,"NGW","noGo",0,241,4,1,"neutral","Win",NA,"no_press",1,"no_press","no_press",0
"62",252,"AAAA0432",14,16,15,14,13,2973,666,0,1,"a.sham",3,"no_press",0,"NGW","noGo",1,252,4,2,"win","Win","win","no_press",1,"no_press","no_press",0
"63",257,"AAAA0432",14,16,15,14,13,1676,769,0,1,"a.sham",3,"no_press",0,"NGW","noGo",1,257,4,3,"win","Win","win","no_press",1,"no_press","no_press",0
"64",264,"AAAA0432",14,16,15,14,13,2044,572,0,1,"a.sham",3,"no_press",0,"NGW","noGo",1,264,4,4,"win","Win","win","no_press",1,"no_press","no_press",0
"65",265,"AAAA0432",14,16,15,14,13,1368,623,0,0,"a.sham",3,"no_press",0,"NGW","noGo",1,265,4,5,"neutral","Win",NA,"no_press",0,NA,"no_press",0
"66",271,"AAAA0432",14,16,15,14,13,1813,891,0,1,"a.sham",3,"no_press",0,"NGW","noGo",1,271,4,6,"win","Win","win","no_press",1,"no_press","no_press",0
"67",272,"AAAA0432",14,16,15,14,13,1771,699,0,1,"a.sham",3,"no_press",0,"NGW","noGo",1,272,4,7,"win","Win","win","no_press",1,"no_press","no_press",0
"68",275,"AAAA0432",14,16,15,14,13,1944,867,0,0,"a.sham",3,"no_press",0,"NGW","noGo",1,275,4,8,"neutral","Win",NA,"no_press",0,NA,"no_press",0
"69",283,"AAAA0432",14,16,15,14,13,1577,676,0,0,"a.sham",3,"no_press",0,"NGW","noGo",1,283,4,9,"neutral","Win",NA,"no_press",0,NA,"no_press",0
"70",284,"AAAA0432",14,16,15,14,13,3438,986,0,1,"a.sham",3,"no_press",0,"NGW","noGo",1,284,4,10,"win","Win","win","no_press",1,"no_press","no_press",0
"71",290,"AAAA0432",14,16,15,14,13,2343,689,0,1,"a.sham",3,"no_press",0,"NGW","noGo",1,290,4,11,"win","Win","win","no_press",1,"no_press","no_press",0
"72",292,"AAAA0432",14,16,15,14,13,2093,825,0,1,"a.sham",3,"no_press",0,"NGW","noGo",1,292,4,12,"win","Win","win","no_press",1,"no_press","no_press",0
"73",301,"AAAA0432",14,16,15,14,13,1645,839,0,1,"a.sham",3,"no_press",0,"NGW","noGo",1,301,4,13,"win","Win","win","no_press",1,"no_press","no_press",0
"74",303,"AAAA0432",14,16,15,14,13,3088,596,0,1,"a.sham",3,"no_press",0,"NGW","noGo",1,303,4,14,"win","Win","win","no_press",1,"no_press","no_press",0
"75",305,"AAAA0432",14,16,15,14,13,1704,612,0,1,"a.sham",3,"no_press",0,"NGW","noGo",1,305,4,15,"win","Win","win","no_press",1,"no_press","no_press",0
"76",309,"AAAA0432",14,16,15,14,13,2185,774,0,1,"a.sham",3,"no_press",0,"NGW","noGo",1,309,4,16,"win","Win","win","no_press",1,"no_press","no_press",0
"77",311,"AAAA0432",14,16,15,14,13,2674,584,0,1,"a.sham",3,"no_press",0,"NGW","noGo",1,311,4,17,"win","Win","win","no_press",1,"no_press","no_press",0
"78",316,"AAAA0432",14,16,15,14,13,2533,935,0,1,"a.sham",3,"no_press",0,"NGW","noGo",1,316,4,18,"win","Win","win","no_press",1,"no_press","no_press",0
"79",318,"AAAA0432",14,16,15,14,13,1816,699,0,0,"a.sham",3,"no_press",0,"NGW","noGo",1,318,4,19,"neutral","Win",NA,"no_press",0,NA,"no_press",0
"80",319,"AAAA0432",14,16,15,14,13,1657,766,0,1,"a.sham",3,"no_press",0,"NGW","noGo",1,319,4,20,"win","Win","win",NA,1,NA,NA,NA
"81",323,"BNVN0020",2,4,1,2,3,1942,696,626,0,"a.sham",1,"press",1,"NGW","noGo",0,3,1,1,"neutral","Win",NA,"press",1,"press","press",1
"82",335,"BNVN0020",2,4,1,2,3,1780,551,1321,0,"a.sham",1,"press",1,"NGW","noGo",0,15,1,2,"neutral","Win",NA,"no_press",1,"no_press","no_press",0
"83",341,"BNVN0020",2,4,1,2,3,2785,798,0,1,"a.sham",1,"no_press",0,"NGW","noGo",1,21,1,3,"win","Win","win","no_press",1,"no_press","no_press",0
"84",342,"BNVN0020",2,4,1,2,3,2615,600,0,1,"a.sham",1,"no_press",0,"NGW","noGo",1,22,1,4,"win","Win","win","no_press",1,"no_press","no_press",0
"85",346,"BNVN0020",2,4,1,2,3,1709,966,0,1,"a.sham",1,"no_press",0,"NGW","noGo",1,26,1,5,"win","Win","win","no_press",1,"no_press","no_press",0
"86",350,"BNVN0020",2,4,1,2,3,2103,956,0,1,"a.sham",1,"no_press",0,"NGW","noGo",1,30,1,6,"win","Win","win","no_press",1,"no_press","no_press",0
"87",351,"BNVN0020",2,4,1,2,3,1608,999,0,1,"a.sham",1,"no_press",0,"NGW","noGo",1,31,1,7,"win","Win","win","no_press",1,"no_press","no_press",0
"88",355,"BNVN0020",2,4,1,2,3,1715,641,0,1,"a.sham",1,"no_press",0,"NGW","noGo",1,35,1,8,"win","Win","win","no_press",1,"no_press","no_press",0
"89",360,"BNVN0020",2,4,1,2,3,1889,818,0,1,"a.sham",1,"no_press",0,"NGW","noGo",1,40,1,9,"win","Win","win","no_press",1,"no_press","no_press",0
"90",361,"BNVN0020",2,4,1,2,3,1364,791,0,1,"a.sham",1,"no_press",0,"NGW","noGo",1,41,1,10,"win","Win","win","no_press",1,"no_press","no_press",0
"91",365,"BNVN0020",2,4,1,2,3,1779,791,0,1,"a.sham",1,"no_press",0,"NGW","noGo",1,45,1,11,"win","Win","win","no_press",1,"no_press","no_press",0
"92",367,"BNVN0020",2,4,1,2,3,2664,630,0,1,"a.sham",1,"no_press",0,"NGW","noGo",1,47,1,12,"win","Win","win","no_press",1,"no_press","no_press",0
"93",370,"BNVN0020",2,4,1,2,3,1246,952,0,0,"a.sham",1,"no_press",0,"NGW","noGo",1,50,1,13,"neutral","Win",NA,"no_press",0,NA,"no_press",0
"94",378,"BNVN0020",2,4,1,2,3,1575,891,0,1,"a.sham",1,"no_press",0,"NGW","noGo",1,58,1,14,"win","Win","win","no_press",1,"no_press","no_press",0
"95",379,"BNVN0020",2,4,1,2,3,2650,932,0,1,"a.sham",1,"no_press",0,"NGW","noGo",1,59,1,15,"win","Win","win","no_press",1,"no_press","no_press",0
"96",382,"BNVN0020",2,4,1,2,3,2315,865,0,0,"a.sham",1,"no_press",0,"NGW","noGo",1,62,1,16,"neutral","Win",NA,"no_press",0,NA,"no_press",0
"97",384,"BNVN0020",2,4,1,2,3,2116,673,0,1,"a.sham",1,"no_press",0,"NGW","noGo",1,64,1,17,"win","Win","win","no_press",1,"no_press","no_press",0
"98",392,"BNVN0020",2,4,1,2,3,1434,803,0,0,"a.sham",1,"no_press",0,"NGW","noGo",1,72,1,18,"neutral","Win",NA,"no_press",0,NA,"no_press",0
"99",395,"BNVN0020",2,4,1,2,3,2103,595,0,0,"a.sham",1,"no_press",0,"NGW","noGo",1,75,1,19,"neutral","Win",NA,"press",0,NA,"press",1
"100",398,"BNVN0020",2,4,1,2,3,1959,802,479,0,"a.sham",1,"press",1,"NGW","noGo",0,78,1,20,"neutral","Win",NA,"press",1,"press",NA,NA
"101",403,"BNVN0020",8,6,7,8,5,2700,519,850,0,"a.sham",1,"press",1,"NGW","noGo",0,83,2,1,"neutral","Win",NA,"press",1,"press","press",1
"102",410,"BNVN0020",8,6,7,8,5,1433,553,796,0,"a.sham",1,"press",1,"NGW","noGo",0,90,2,2,"neutral","Win",NA,"no_press",1,"no_press","no_press",0
"103",412,"BNVN0020",8,6,7,8,5,1890,541,0,1,"a.sham",1,"no_press",0,"NGW","noGo",1,92,2,3,"win","Win","win","press",1,"press","press",1
"104",417,"BNVN0020",8,6,7,8,5,1966,998,1063,0,"a.sham",1,"press",1,"NGW","noGo",0,97,2,4,"neutral","Win",NA,"no_press",1,"no_press","no_press",0
"105",419,"BNVN0020",8,6,7,8,5,1723,638,0,1,"a.sham",1,"no_press",0,"NGW","noGo",1,99,2,5,"win","Win","win","no_press",1,"no_press","no_press",0
"106",420,"BNVN0020",8,6,7,8,5,1702,753,0,1,"a.sham",1,"no_press",0,"NGW","noGo",1,100,2,6,"win","Win","win","no_press",1,"no_press","no_press",0
"107",424,"BNVN0020",8,6,7,8,5,1845,729,0,0,"a.sham",1,"no_press",0,"NGW","noGo",1,104,2,7,"neutral","Win",NA,"no_press",0,NA,"no_press",0
"108",428,"BNVN0020",8,6,7,8,5,3128,629,0,0,"a.sham",1,"no_press",0,"NGW","noGo",1,108,2,8,"neutral","Win",NA,"no_press",0,NA,"no_press",0
"109",432,"BNVN0020",8,6,7,8,5,2318,885,0,1,"a.sham",1,"no_press",0,"NGW","noGo",1,112,2,9,"win","Win","win","no_press",1,"no_press","no_press",0
"110",436,"BNVN0020",8,6,7,8,5,2549,936,0,1,"a.sham",1,"no_press",0,"NGW","noGo",1,116,2,10,"win","Win","win","no_press",1,"no_press","no_press",0
"111",445,"BNVN0020",8,6,7,8,5,2274,923,0,0,"a.sham",1,"no_press",0,"NGW","noGo",1,125,2,11,"neutral","Win",NA,"press",0,NA,"press",1
"112",448,"BNVN0020",8,6,7,8,5,1182,521,683,0,"a.sham",1,"press",1,"NGW","noGo",0,128,2,12,"neutral","Win",NA,"no_press",1,"no_press","no_press",0
"113",450,"BNVN0020",8,6,7,8,5,2184,966,0,1,"a.sham",1,"no_press",0,"NGW","noGo",1,130,2,13,"win","Win","win","no_press",1,"no_press","no_press",0
"114",460,"BNVN0020",8,6,7,8,5,2212,794,0,1,"a.sham",1,"no_press",0,"NGW","noGo",1,140,2,14,"win","Win","win","no_press",1,"no_press","no_press",0
"115",461,"BNVN0020",8,6,7,8,5,2887,937,0,1,"a.sham",1,"no_press",0,"NGW","noGo",1,141,2,15,"win","Win","win","no_press",1,"no_press","no_press",0
"116",463,"BNVN0020",8,6,7,8,5,2074,781,0,1,"a.sham",1,"no_press",0,"NGW","noGo",1,143,2,16,"win","Win","win","no_press",1,"no_press","no_press",0
"117",467,"BNVN0020",8,6,7,8,5,2467,966,0,1,"a.sham",1,"no_press",0,"NGW","noGo",1,147,2,17,"win","Win","win","no_press",1,"no_press","no_press",0
"118",468,"BNVN0020",8,6,7,8,5,2096,720,0,1,"a.sham",1,"no_press",0,"NGW","noGo",1,148,2,18,"win","Win","win","no_press",1,"no_press","no_press",0
"119",469,"BNVN0020",8,6,7,8,5,1951,602,0,0,"a.sham",1,"no_press",0,"NGW","noGo",1,149,2,19,"neutral","Win",NA,"no_press",0,NA,"no_press",0
"120",470,"BNVN0020",8,6,7,8,5,1468,822,0,1,"a.sham",1,"no_press",0,"NGW","noGo",1,150,2,20,"win","Win","win","no_press",1,"no_press",NA,NA
"121",482,"BNVN0020",12,10,11,12,9,2359,719,0,1,"a.sham",1,"no_press",0,"NGW","noGo",1,162,3,1,"win","Win","win","no_press",1,"no_press","no_press",0
"122",489,"BNVN0020",12,10,11,12,9,1826,585,0,1,"a.sham",1,"no_press",0,"NGW","noGo",1,169,3,2,"win","Win","win","no_press",1,"no_press","no_press",0
"123",490,"BNVN0020",12,10,11,12,9,2481,684,0,1,"a.sham",1,"no_press",0,"NGW","noGo",1,170,3,3,"win","Win","win","no_press",1,"no_press","no_press",0
"124",493,"BNVN0020",12,10,11,12,9,1787,519,0,1,"a.sham",1,"no_press",0,"NGW","noGo",1,173,3,4,"win","Win","win","no_press",1,"no_press","no_press",0
"125",495,"BNVN0020",12,10,11,12,9,1908,526,0,1,"a.sham",1,"no_press",0,"NGW","noGo",1,175,3,5,"win","Win","win","no_press",1,"no_press","no_press",0
"126",499,"BNVN0020",12,10,11,12,9,2745,525,0,0,"a.sham",1,"no_press",0,"NGW","noGo",1,179,3,6,"neutral","Win",NA,"no_press",0,NA,"no_press",0
"127",501,"BNVN0020",12,10,11,12,9,3876,758,0,1,"a.sham",1,"no_press",0,"NGW","noGo",1,181,3,7,"win","Win","win","no_press",1,"no_press","no_press",0
"128",512,"BNVN0020",12,10,11,12,9,1725,761,0,0,"a.sham",1,"no_press",0,"NGW","noGo",1,192,3,8,"neutral","Win",NA,"no_press",0,NA,"no_press",0
"129",518,"BNVN0020",12,10,11,12,9,2273,779,0,1,"a.sham",1,"no_press",0,"NGW","noGo",1,198,3,9,"win","Win","win","no_press",1,"no_press","no_press",0
"130",524,"BNVN0020",12,10,11,12,9,2444,519,0,1,"a.sham",1,"no_press",0,"NGW","noGo",1,204,3,10,"win","Win","win","no_press",1,"no_press","no_press",0
"131",525,"BNVN0020",12,10,11,12,9,1879,994,0,0,"a.sham",1,"no_press",0,"NGW","noGo",1,205,3,11,"neutral","Win",NA,"no_press",0,NA,"no_press",0
"132",529,"BNVN0020",12,10,11,12,9,1000,613,0,1,"a.sham",1,"no_press",0,"NGW","noGo",1,209,3,12,"win","Win","win","no_press",1,"no_press","no_press",0
"133",530,"BNVN0020",12,10,11,12,9,3020,598,0,1,"a.sham",1,"no_press",0,"NGW","noGo",1,210,3,13,"win","Win","win","no_press",1,"no_press","no_press",0
"134",532,"BNVN0020",12,10,11,12,9,2335,704,0,1,"a.sham",1,"no_press",0,"NGW","noGo",1,212,3,14,"win","Win","win","no_press",1,"no_press","no_press",0
"135",534,"BNVN0020",12,10,11,12,9,1639,990,0,1,"a.sham",1,"no_press",0,"NGW","noGo",1,214,3,15,"win","Win","win","no_press",1,"no_press","no_press",0
"136",537,"BNVN0020",12,10,11,12,9,2299,897,0,0,"a.sham",1,"no_press",0,"NGW","noGo",1,217,3,16,"neutral","Win",NA,"no_press",0,NA,"no_press",0
"137",538,"BNVN0020",12,10,11,12,9,1820,578,0,1,"a.sham",1,"no_press",0,"NGW","noGo",1,218,3,17,"win","Win","win","no_press",1,"no_press","no_press",0
"138",539,"BNVN0020",12,10,11,12,9,2942,997,0,1,"a.sham",1,"no_press",0,"NGW","noGo",1,219,3,18,"win","Win","win","no_press",1,"no_press","no_press",0
"139",546,"BNVN0020",12,10,11,12,9,5000,839,0,1,"a.sham",1,"no_press",0,"NGW","noGo",1,226,3,19,"win","Win","win","no_press",1,"no_press","no_press",0
"140",547,"BNVN0020",12,10,11,12,9,2234,989,0,1,"a.sham",1,"no_press",0,"NGW","noGo",1,227,3,20,"win","Win","win","press",1,"press",NA,NA
"141",562,"BNVN0020",14,16,13,14,15,1869,934,643,0,"a.sham",1,"press",1,"NGW","noGo",0,242,4,1,"neutral","Win",NA,"press",1,"press","press",1
"142",563,"BNVN0020",14,16,13,14,15,2794,638,854,1,"a.sham",1,"press",1,"NGW","noGo",0,243,4,2,"win","Win","win","press",0,NA,"press",1
"143",570,"BNVN0020",14,16,13,14,15,2221,916,1147,0,"a.sham",1,"press",1,"NGW","noGo",0,250,4,3,"neutral","Win",NA,"no_press",1,"no_press","no_press",0
"144",573,"BNVN0020",14,16,13,14,15,2344,518,0,1,"a.sham",1,"no_press",0,"NGW","noGo",1,253,4,4,"win","Win","win","no_press",1,"no_press","no_press",0
"145",577,"BNVN0020",14,16,13,14,15,2063,625,0,0,"a.sham",1,"no_press",0,"NGW","noGo",1,257,4,5,"neutral","Win",NA,"press",0,NA,"press",1
"146",588,"BNVN0020",14,16,13,14,15,2357,966,867,0,"a.sham",1,"press",1,"NGW","noGo",0,268,4,6,"neutral","Win",NA,"press",1,"press","press",1
"147",591,"BNVN0020",14,16,13,14,15,2695,665,976,0,"a.sham",1,"press",1,"NGW","noGo",0,271,4,7,"neutral","Win",NA,"no_press",1,"no_press","no_press",0
"148",592,"BNVN0020",14,16,13,14,15,3626,871,0,1,"a.sham",1,"no_press",0,"NGW","noGo",1,272,4,8,"win","Win","win","press",1,"press","press",1
"149",601,"BNVN0020",14,16,13,14,15,2511,981,995,0,"a.sham",1,"press",1,"NGW","noGo",0,281,4,9,"neutral","Win",NA,"press",1,"press","press",1
"150",604,"BNVN0020",14,16,13,14,15,2692,677,663,0,"a.sham",1,"press",1,"NGW","noGo",0,284,4,10,"neutral","Win",NA,"no_press",1,"no_press","no_press",0
"151",605,"BNVN0020",14,16,13,14,15,1678,753,0,1,"a.sham",1,"no_press",0,"NGW","noGo",1,285,4,11,"win","Win","win","no_press",1,"no_press","no_press",0
"152",606,"BNVN0020",14,16,13,14,15,1771,635,0,1,"a.sham",1,"no_press",0,"NGW","noGo",1,286,4,12,"win","Win","win","no_press",1,"no_press","no_press",0
"153",608,"BNVN0020",14,16,13,14,15,1909,851,0,1,"a.sham",1,"no_press",0,"NGW","noGo",1,288,4,13,"win","Win","win","no_press",1,"no_press","no_press",0
"154",609,"BNVN0020",14,16,13,14,15,1537,532,0,1,"a.sham",1,"no_press",0,"NGW","noGo",1,289,4,14,"win","Win","win","no_press",1,"no_press","no_press",0
"155",614,"BNVN0020",14,16,13,14,15,1196,813,0,0,"a.sham",1,"no_press",0,"NGW","noGo",1,294,4,15,"neutral","Win",NA,"no_press",0,NA,"no_press",0
"156",616,"BNVN0020",14,16,13,14,15,1743,521,0,1,"a.sham",1,"no_press",0,"NGW","noGo",1,296,4,16,"win","Win","win","no_press",1,"no_press","no_press",0
"157",617,"BNVN0020",14,16,13,14,15,1504,923,0,0,"a.sham",1,"no_press",0,"NGW","noGo",1,297,4,17,"neutral","Win",NA,"press",0,NA,"press",1
"158",627,"BNVN0020",14,16,13,14,15,3515,968,716,0,"a.sham",1,"press",1,"NGW","noGo",0,307,4,18,"neutral","Win",NA,"press",1,"press","press",1
"159",637,"BNVN0020",14,16,13,14,15,2239,644,674,0,"a.sham",1,"press",1,"NGW","noGo",0,317,4,19,"neutral","Win",NA,"no_press",1,"no_press","no_press",0
"160",639,"BNVN0020",14,16,13,14,15,2126,913,0,1,"a.sham",1,"no_press",0,"NGW","noGo",1,319,4,20,"win","Win","win",NA,1,NA,NA,NA
"161",645,"DIVL0216",4,2,3,4,1,2198,690,578,0,"a.sham",3,"press",1,"NGW","noGo",0,5,1,1,"neutral","Win",NA,"press",1,"press","press",1
"162",647,"DIVL0216",4,2,3,4,1,1771,786,523,0,"a.sham",3,"press",1,"NGW","noGo",0,7,1,2,"neutral","Win",NA,"press",1,"press","press",1
"163",652,"DIVL0216",4,2,3,4,1,2015,842,634,0,"a.sham",3,"press",1,"NGW","noGo",0,12,1,3,"neutral","Win",NA,"no_press",1,"no_press","no_press",0
"164",654,"DIVL0216",4,2,3,4,1,1525,631,0,0,"a.sham",3,"no_press",0,"NGW","noGo",1,14,1,4,"neutral","Win",NA,"no_press",0,NA,"no_press",0
"165",661,"DIVL0216",4,2,3,4,1,1712,884,0,1,"a.sham",3,"no_press",0,"NGW","noGo",1,21,1,5,"win","Win","win","no_press",1,"no_press","no_press",0
"166",669,"DIVL0216",4,2,3,4,1,1530,1000,0,1,"a.sham",3,"no_press",0,"NGW","noGo",1,29,1,6,"win","Win","win","no_press",1,"no_press","no_press",0
"167",676,"DIVL0216",4,2,3,4,1,2144,894,0,1,"a.sham",3,"no_press",0,"NGW","noGo",1,36,1,7,"win","Win","win","no_press",1,"no_press","no_press",0
"168",680,"DIVL0216",4,2,3,4,1,1816,898,0,1,"a.sham",3,"no_press",0,"NGW","noGo",1,40,1,8,"win","Win","win","no_press",1,"no_press","no_press",0
"169",687,"DIVL0216",4,2,3,4,1,1809,835,0,1,"a.sham",3,"no_press",0,"NGW","noGo",1,47,1,9,"win","Win","win","no_press",1,"no_press","no_press",0
"170",690,"DIVL0216",4,2,3,4,1,1469,659,0,0,"a.sham",3,"no_press",0,"NGW","noGo",1,50,1,10,"neutral","Win",NA,"no_press",0,NA,"no_press",0
"171",696,"DIVL0216",4,2,3,4,1,2225,582,0,1,"a.sham",3,"no_press",0,"NGW","noGo",1,56,1,11,"win","Win","win","no_press",1,"no_press","no_press",0
"172",701,"DIVL0216",4,2,3,4,1,3438,974,0,1,"a.sham",3,"no_press",0,"NGW","noGo",1,61,1,12,"win","Win","win","no_press",1,"no_press","no_press",0
"173",704,"DIVL0216",4,2,3,4,1,2355,717,0,1,"a.sham",3,"no_press",0,"NGW","noGo",1,64,1,13,"win","Win","win","no_press",1,"no_press","no_press",0
"174",705,"DIVL0216",4,2,3,4,1,1486,750,0,0,"a.sham",3,"no_press",0,"NGW","noGo",1,65,1,14,"neutral","Win",NA,"no_press",0,NA,"no_press",0
"175",706,"DIVL0216",4,2,3,4,1,3256,838,0,1,"a.sham",3,"no_press",0,"NGW","noGo",1,66,1,15,"win","Win","win","no_press",1,"no_press","no_press",0
"176",710,"DIVL0216",4,2,3,4,1,5000,973,0,1,"a.sham",3,"no_press",0,"NGW","noGo",1,70,1,16,"win","Win","win","no_press",1,"no_press","no_press",0
"177",711,"DIVL0216",4,2,3,4,1,2096,535,0,1,"a.sham",3,"no_press",0,"NGW","noGo",1,71,1,17,"win","Win","win","no_press",1,"no_press","no_press",0
"178",712,"DIVL0216",4,2,3,4,1,1773,507,0,0,"a.sham",3,"no_press",0,"NGW","noGo",1,72,1,18,"neutral","Win",NA,"no_press",0,NA,"no_press",0
"179",714,"DIVL0216",4,2,3,4,1,1813,875,0,1,"a.sham",3,"no_press",0,"NGW","noGo",1,74,1,19,"win","Win","win","press",1,"press","press",1
"180",720,"DIVL0216",4,2,3,4,1,3396,679,371,0,"a.sham",3,"press",1,"NGW","noGo",0,80,1,20,"neutral","Win",NA,"press",1,"press",NA,NA
"181",730,"DIVL0216",8,6,7,8,5,2044,745,589,0,"a.sham",3,"press",1,"NGW","noGo",0,90,2,1,"neutral","Win",NA,"no_press",1,"no_press","no_press",0
"182",736,"DIVL0216",8,6,7,8,5,2596,805,0,1,"a.sham",3,"no_press",0,"NGW","noGo",1,96,2,2,"win","Win","win","no_press",1,"no_press","no_press",0
"183",742,"DIVL0216",8,6,7,8,5,2000,526,0,1,"a.sham",3,"no_press",0,"NGW","noGo",1,102,2,3,"win","Win","win","no_press",1,"no_press","no_press",0
"184",743,"DIVL0216",8,6,7,8,5,1540,714,0,1,"a.sham",3,"no_press",0,"NGW","noGo",1,103,2,4,"win","Win","win","no_press",1,"no_press","no_press",0
"185",746,"DIVL0216",8,6,7,8,5,1768,595,0,1,"a.sham",3,"no_press",0,"NGW","noGo",1,106,2,5,"win","Win","win","no_press",1,"no_press","no_press",0
"186",751,"DIVL0216",8,6,7,8,5,1446,561,0,1,"a.sham",3,"no_press",0,"NGW","noGo",1,111,2,6,"win","Win","win","no_press",1,"no_press","no_press",0
"187",761,"DIVL0216",8,6,7,8,5,1761,871,0,0,"a.sham",3,"no_press",0,"NGW","noGo",1,121,2,7,"neutral","Win",NA,"no_press",0,NA,"no_press",0
"188",767,"DIVL0216",8,6,7,8,5,2659,662,0,0,"a.sham",3,"no_press",0,"NGW","noGo",1,127,2,8,"neutral","Win",NA,"no_press",0,NA,"no_press",0
"189",770,"DIVL0216",8,6,7,8,5,1617,600,0,1,"a.sham",3,"no_press",0,"NGW","noGo",1,130,2,9,"win","Win","win","no_press",1,"no_press","no_press",0
"190",772,"DIVL0216",8,6,7,8,5,2185,608,0,0,"a.sham",3,"no_press",0,"NGW","noGo",1,132,2,10,"neutral","Win",NA,"no_press",0,NA,"no_press",0
"191",773,"DIVL0216",8,6,7,8,5,1617,550,0,1,"a.sham",3,"no_press",0,"NGW","noGo",1,133,2,11,"win","Win","win","no_press",1,"no_press","no_press",0
"192",774,"DIVL0216",8,6,7,8,5,1962,566,0,1,"a.sham",3,"no_press",0,"NGW","noGo",1,134,2,12,"win","Win","win","no_press",1,"no_press","no_press",0
"193",775,"DIVL0216",8,6,7,8,5,1447,585,0,1,"a.sham",3,"no_press",0,"NGW","noGo",1,135,2,13,"win","Win","win","no_press",1,"no_press","no_press",0
"194",776,"DIVL0216",8,6,7,8,5,1000,862,0,1,"a.sham",3,"no_press",0,"NGW","noGo",1,136,2,14,"win","Win","win","no_press",1,"no_press","no_press",0
"195",783,"DIVL0216",8,6,7,8,5,1915,924,0,1,"a.sham",3,"no_press",0,"NGW","noGo",1,143,2,15,"win","Win","win","no_press",1,"no_press","no_press",0
"196",787,"DIVL0216",8,6,7,8,5,1183,876,0,1,"a.sham",3,"no_press",0,"NGW","noGo",1,147,2,16,"win","Win","win","no_press",1,"no_press","no_press",0
"197",789,"DIVL0216",8,6,7,8,5,1652,683,0,0,"a.sham",3,"no_press",0,"NGW","noGo",1,149,2,17,"neutral","Win",NA,"no_press",0,NA,"no_press",0
"198",792,"DIVL0216",8,6,7,8,5,3073,812,0,1,"a.sham",3,"no_press",0,"NGW","noGo",1,152,2,18,"win","Win","win","no_press",1,"no_press","no_press",0
"199",793,"DIVL0216",8,6,7,8,5,1928,522,0,1,"a.sham",3,"no_press",0,"NGW","noGo",1,153,2,19,"win","Win","win","no_press",1,"no_press","no_press",0
"200",798,"DIVL0216",8,6,7,8,5,1944,564,0,1,"a.sham",3,"no_press",0,"NGW","noGo",1,158,2,20,"win","Win","win","press",1,"press",NA,NA
"201",808,"DIVL0216",10,12,11,10,9,2075,938,605,0,"a.sham",3,"press",1,"NGW","noGo",0,168,3,1,"neutral","Win",NA,"no_press",1,"no_press","no_press",0
"202",809,"DIVL0216",10,12,11,10,9,2253,723,0,0,"a.sham",3,"no_press",0,"NGW","noGo",1,169,3,2,"neutral","Win",NA,"no_press",0,NA,"no_press",0
"203",810,"DIVL0216",10,12,11,10,9,1776,580,0,1,"a.sham",3,"no_press",0,"NGW","noGo",1,170,3,3,"win","Win","win","no_press",1,"no_press","no_press",0
"204",814,"DIVL0216",10,12,11,10,9,1773,612,0,1,"a.sham",3,"no_press",0,"NGW","noGo",1,174,3,4,"win","Win","win","no_press",1,"no_press","no_press",0
"205",816,"DIVL0216",10,12,11,10,9,1780,685,0,1,"a.sham",3,"no_press",0,"NGW","noGo",1,176,3,5,"win","Win","win","no_press",1,"no_press","no_press",0
"206",822,"DIVL0216",10,12,11,10,9,1904,921,0,0,"a.sham",3,"no_press",0,"NGW","noGo",1,182,3,6,"neutral","Win",NA,"no_press",0,NA,"no_press",0
"207",823,"DIVL0216",10,12,11,10,9,1711,708,0,1,"a.sham",3,"no_press",0,"NGW","noGo",1,183,3,7,"win","Win","win","no_press",1,"no_press","no_press",0
"208",824,"DIVL0216",10,12,11,10,9,2129,561,0,1,"a.sham",3,"no_press",0,"NGW","noGo",1,184,3,8,"win","Win","win","no_press",1,"no_press","no_press",0
"209",826,"DIVL0216",10,12,11,10,9,1222,646,0,0,"a.sham",3,"no_press",0,"NGW","noGo",1,186,3,9,"neutral","Win",NA,"no_press",0,NA,"no_press",0
"210",827,"DIVL0216",10,12,11,10,9,3211,808,0,1,"a.sham",3,"no_press",0,"NGW","noGo",1,187,3,10,"win","Win","win","no_press",1,"no_press","no_press",0
"211",830,"DIVL0216",10,12,11,10,9,1550,961,0,1,"a.sham",3,"no_press",0,"NGW","noGo",1,190,3,11,"win","Win","win","no_press",1,"no_press","no_press",0
"212",837,"DIVL0216",10,12,11,10,9,1742,747,0,1,"a.sham",3,"no_press",0,"NGW","noGo",1,197,3,12,"win","Win","win","no_press",1,"no_press","no_press",0
"213",844,"DIVL0216",10,12,11,10,9,2394,575,0,0,"a.sham",3,"no_press",0,"NGW","noGo",1,204,3,13,"neutral","Win",NA,"no_press",0,NA,"no_press",0
"214",856,"DIVL0216",10,12,11,10,9,1259,775,0,1,"a.sham",3,"no_press",0,"NGW","noGo",1,216,3,14,"win","Win","win","no_press",1,"no_press","no_press",0
"215",857,"DIVL0216",10,12,11,10,9,2125,783,0,1,"a.sham",3,"no_press",0,"NGW","noGo",1,217,3,15,"win","Win","win","no_press",1,"no_press","no_press",0
"216",871,"DIVL0216",10,12,11,10,9,1873,732,0,1,"a.sham",3,"no_press",0,"NGW","noGo",1,231,3,16,"win","Win","win","no_press",1,"no_press","no_press",0
"217",872,"DIVL0216",10,12,11,10,9,1551,840,0,1,"a.sham",3,"no_press",0,"NGW","noGo",1,232,3,17,"win","Win","win","no_press",1,"no_press","no_press",0
"218",877,"DIVL0216",10,12,11,10,9,1801,644,0,1,"a.sham",3,"no_press",0,"NGW","noGo",1,237,3,18,"win","Win","win","no_press",1,"no_press","no_press",0
"219",878,"DIVL0216",10,12,11,10,9,1485,550,0,1,"a.sham",3,"no_press",0,"NGW","noGo",1,238,3,19,"win","Win","win","no_press",1,"no_press","no_press",0
"220",880,"DIVL0216",10,12,11,10,9,1418,685,0,1,"a.sham",3,"no_press",0,"NGW","noGo",1,240,3,20,"win","Win","win","no_press",1,"no_press",NA,NA
"221",892,"DIVL0216",16,14,13,16,15,1708,505,0,1,"a.sham",3,"no_press",0,"NGW","noGo",1,252,4,1,"win","Win","win","no_press",1,"no_press","no_press",0
"222",894,"DIVL0216",16,14,13,16,15,1418,530,0,1,"a.sham",3,"no_press",0,"NGW","noGo",1,254,4,2,"win","Win","win","no_press",1,"no_press","no_press",0
"223",895,"DIVL0216",16,14,13,16,15,1510,811,0,1,"a.sham",3,"no_press",0,"NGW","noGo",1,255,4,3,"win","Win","win","no_press",1,"no_press","no_press",0
"224",896,"DIVL0216",16,14,13,16,15,1800,858,0,0,"a.sham",3,"no_press",0,"NGW","noGo",1,256,4,4,"neutral","Win",NA,"no_press",0,NA,"no_press",0
"225",898,"DIVL0216",16,14,13,16,15,2328,934,0,1,"a.sham",3,"no_press",0,"NGW","noGo",1,258,4,5,"win","Win","win","no_press",1,"no_press","no_press",0
"226",899,"DIVL0216",16,14,13,16,15,3045,898,0,1,"a.sham",3,"no_press",0,"NGW","noGo",1,259,4,6,"win","Win","win","no_press",1,"no_press","no_press",0
"227",903,"DIVL0216",16,14,13,16,15,2084,766,0,1,"a.sham",3,"no_press",0,"NGW","noGo",1,263,4,7,"win","Win","win","no_press",1,"no_press","no_press",0
"228",904,"DIVL0216",16,14,13,16,15,1704,970,0,1,"a.sham",3,"no_press",0,"NGW","noGo",1,264,4,8,"win","Win","win","no_press",1,"no_press","no_press",0
"229",907,"DIVL0216",16,14,13,16,15,2434,547,0,1,"a.sham",3,"no_press",0,"NGW","noGo",1,267,4,9,"win","Win","win","no_press",1,"no_press","no_press",0
"230",911,"DIVL0216",16,14,13,16,15,1834,770,0,1,"a.sham",3,"no_press",0,"NGW","noGo",1,271,4,10,"win","Win","win","no_press",1,"no_press","no_press",0
"231",913,"DIVL0216",16,14,13,16,15,1494,919,0,1,"a.sham",3,"no_press",0,"NGW","noGo",1,273,4,11,"win","Win","win","no_press",1,"no_press","no_press",0
"232",914,"DIVL0216",16,14,13,16,15,2267,928,0,1,"a.sham",3,"no_press",0,"NGW","noGo",1,274,4,12,"win","Win","win","press",1,"press","press",1
"233",920,"DIVL0216",16,14,13,16,15,1753,645,418,1,"a.sham",3,"press",1,"NGW","noGo",0,280,4,13,"win","Win","win","no_press",0,NA,"no_press",0
"234",923,"DIVL0216",16,14,13,16,15,1649,766,0,1,"a.sham",3,"no_press",0,"NGW","noGo",1,283,4,14,"win","Win","win","no_press",1,"no_press","no_press",0
"235",931,"DIVL0216",16,14,13,16,15,1759,730,0,1,"a.sham",3,"no_press",0,"NGW","noGo",1,291,4,15,"win","Win","win","no_press",1,"no_press","no_press",0
"236",943,"DIVL0216",16,14,13,16,15,2223,597,0,0,"a.sham",3,"no_press",0,"NGW","noGo",1,303,4,16,"neutral","Win",NA,"no_press",0,NA,"no_press",0
"237",949,"DIVL0216",16,14,13,16,15,2518,720,0,0,"a.sham",3,"no_press",0,"NGW","noGo",1,309,4,17,"neutral","Win",NA,"no_press",0,NA,"no_press",0
"238",951,"DIVL0216",16,14,13,16,15,1693,890,0,1,"a.sham",3,"no_press",0,"NGW","noGo",1,311,4,18,"win","Win","win","no_press",1,"no_press","no_press",0
"239",954,"DIVL0216",16,14,13,16,15,2314,738,0,1,"a.sham",3,"no_press",0,"NGW","noGo",1,314,4,19,"win","Win","win","no_press",1,"no_press","no_press",0
"240",958,"DIVL0216",16,14,13,16,15,2235,913,0,1,"a.sham",3,"no_press",0,"NGW","noGo",1,318,4,20,"win","Win","win",NA,1,NA,NA,NA
"241",967,"DNHR0900",2,4,3,2,1,2031,774,1170,0,"a.sham",2,"press",1,"NGW","noGo",0,7,1,1,"neutral","Win",NA,"press",1,"press","press",1
"242",976,"DNHR0900",2,4,3,2,1,1775,801,1156,0,"a.sham",2,"press",1,"NGW","noGo",0,16,1,2,"neutral","Win",NA,"no_press",1,"no_press","no_press",0
"243",977,"DNHR0900",2,4,3,2,1,1811,591,0,0,"a.sham",2,"no_press",0,"NGW","noGo",1,17,1,3,"neutral","Win",NA,"no_press",0,NA,"no_press",0
"244",982,"DNHR0900",2,4,3,2,1,1857,568,0,0,"a.sham",2,"no_press",0,"NGW","noGo",1,22,1,4,"neutral","Win",NA,"press",0,NA,"press",1
"245",993,"DNHR0900",2,4,3,2,1,1611,668,600,0,"a.sham",2,"press",1,"NGW","noGo",0,33,1,5,"neutral","Win",NA,"no_press",1,"no_press","no_press",0
"246",999,"DNHR0900",2,4,3,2,1,2371,972,0,1,"a.sham",2,"no_press",0,"NGW","noGo",1,39,1,6,"win","Win","win","no_press",1,"no_press","no_press",0
"247",1007,"DNHR0900",2,4,3,2,1,1502,889,0,1,"a.sham",2,"no_press",0,"NGW","noGo",1,47,1,7,"win","Win","win","no_press",1,"no_press","no_press",0
"248",1009,"DNHR0900",2,4,3,2,1,2185,997,0,1,"a.sham",2,"no_press",0,"NGW","noGo",1,49,1,8,"win","Win","win","no_press",1,"no_press","no_press",0
"249",1010,"DNHR0900",2,4,3,2,1,1592,541,0,1,"a.sham",2,"no_press",0,"NGW","noGo",1,50,1,9,"win","Win","win","no_press",1,"no_press","no_press",0
"250",1013,"DNHR0900",2,4,3,2,1,1749,975,0,1,"a.sham",2,"no_press",0,"NGW","noGo",1,53,1,10,"win","Win","win","no_press",1,"no_press","no_press",0
"251",1014,"DNHR0900",2,4,3,2,1,2527,535,0,0,"a.sham",2,"no_press",0,"NGW","noGo",1,54,1,11,"neutral","Win",NA,"no_press",0,NA,"no_press",0
"252",1016,"DNHR0900",2,4,3,2,1,2305,944,0,1,"a.sham",2,"no_press",0,"NGW","noGo",1,56,1,12,"win","Win","win","no_press",1,"no_press","no_press",0
"253",1017,"DNHR0900",2,4,3,2,1,2184,777,0,0,"a.sham",2,"no_press",0,"NGW","noGo",1,57,1,13,"neutral","Win",NA,"no_press",0,NA,"no_press",0
"254",1018,"DNHR0900",2,4,3,2,1,2403,669,0,1,"a.sham",2,"no_press",0,"NGW","noGo",1,58,1,14,"win","Win","win","no_press",1,"no_press","no_press",0
"255",1025,"DNHR0900",2,4,3,2,1,1528,634,0,1,"a.sham",2,"no_press",0,"NGW","noGo",1,65,1,15,"win","Win","win","no_press",1,"no_press","no_press",0
"256",1027,"DNHR0900",2,4,3,2,1,2048,937,0,1,"a.sham",2,"no_press",0,"NGW","noGo",1,67,1,16,"win","Win","win","no_press",1,"no_press","no_press",0
"257",1028,"DNHR0900",2,4,3,2,1,2550,934,0,1,"a.sham",2,"no_press",0,"NGW","noGo",1,68,1,17,"win","Win","win","no_press",1,"no_press","no_press",0
"258",1029,"DNHR0900",2,4,3,2,1,2080,981,0,1,"a.sham",2,"no_press",0,"NGW","noGo",1,69,1,18,"win","Win","win","no_press",1,"no_press","no_press",0
"259",1030,"DNHR0900",2,4,3,2,1,3094,790,0,1,"a.sham",2,"no_press",0,"NGW","noGo",1,70,1,19,"win","Win","win","no_press",1,"no_press","no_press",0
"260",1031,"DNHR0900",2,4,3,2,1,3057,866,0,1,"a.sham",2,"no_press",0,"NGW","noGo",1,71,1,20,"win","Win","win","press",1,"press",NA,NA
"261",1041,"DNHR0900",8,6,7,8,5,1544,895,915,0,"a.sham",2,"press",1,"NGW","noGo",0,81,2,1,"neutral","Win",NA,"press",1,"press","press",1
"262",1042,"DNHR0900",8,6,7,8,5,1900,984,619,0,"a.sham",2,"press",1,"NGW","noGo",0,82,2,2,"neutral","Win",NA,"press",1,"press","press",1
"263",1043,"DNHR0900",8,6,7,8,5,3107,813,538,0,"a.sham",2,"press",1,"NGW","noGo",0,83,2,3,"neutral","Win",NA,"press",1,"press","press",1
"264",1046,"DNHR0900",8,6,7,8,5,2276,587,489,0,"a.sham",2,"press",1,"NGW","noGo",0,86,2,4,"neutral","Win",NA,"press",1,"press","press",1
"265",1049,"DNHR0900",8,6,7,8,5,1585,879,567,0,"a.sham",2,"press",1,"NGW","noGo",0,89,2,5,"neutral","Win",NA,"press",1,"press","press",1
"266",1050,"DNHR0900",8,6,7,8,5,1512,688,576,1,"a.sham",2,"press",1,"NGW","noGo",0,90,2,6,"win","Win","win","press",0,NA,"press",1
"267",1055,"DNHR0900",8,6,7,8,5,1439,992,470,0,"a.sham",2,"press",1,"NGW","noGo",0,95,2,7,"neutral","Win",NA,"press",1,"press","press",1
"268",1064,"DNHR0900",8,6,7,8,5,3367,523,426,0,"a.sham",2,"press",1,"NGW","noGo",0,104,2,8,"neutral","Win",NA,"press",1,"press","press",1
"269",1067,"DNHR0900",8,6,7,8,5,2008,1000,542,0,"a.sham",2,"press",1,"NGW","noGo",0,107,2,9,"neutral","Win",NA,"press",1,"press","press",1
"270",1069,"DNHR0900",8,6,7,8,5,2331,618,598,1,"a.sham",2,"press",1,"NGW","noGo",0,109,2,10,"win","Win","win","press",0,NA,"press",1
"271",1072,"DNHR0900",8,6,7,8,5,2121,743,494,1,"a.sham",2,"press",1,"NGW","noGo",0,112,2,11,"win","Win","win","press",0,NA,"press",1
"272",1074,"DNHR0900",8,6,7,8,5,2054,558,848,0,"a.sham",2,"press",1,"NGW","noGo",0,114,2,12,"neutral","Win",NA,"press",1,"press","press",1
"273",1078,"DNHR0900",8,6,7,8,5,2767,613,525,1,"a.sham",2,"press",1,"NGW","noGo",0,118,2,13,"win","Win","win","press",0,NA,"press",1
"274",1084,"DNHR0900",8,6,7,8,5,1851,770,598,0,"a.sham",2,"press",1,"NGW","noGo",0,124,2,14,"neutral","Win",NA,"press",1,"press","press",1
"275",1085,"DNHR0900",8,6,7,8,5,1844,914,598,0,"a.sham",2,"press",1,"NGW","noGo",0,125,2,15,"neutral","Win",NA,"press",1,"press","press",1
"276",1089,"DNHR0900",8,6,7,8,5,2128,576,580,0,"a.sham",2,"press",1,"NGW","noGo",0,129,2,16,"neutral","Win",NA,"press",1,"press","press",1
"277",1091,"DNHR0900",8,6,7,8,5,2898,538,721,0,"a.sham",2,"press",1,"NGW","noGo",0,131,2,17,"neutral","Win",NA,"press",1,"press","press",1
"278",1092,"DNHR0900",8,6,7,8,5,2086,932,1104,0,"a.sham",2,"press",1,"NGW","noGo",0,132,2,18,"neutral","Win",NA,"press",1,"press","press",1
"279",1099,"DNHR0900",8,6,7,8,5,2484,932,580,0,"a.sham",2,"press",1,"NGW","noGo",0,139,2,19,"neutral","Win",NA,"press",1,"press","press",1
"280",1112,"DNHR0900",8,6,7,8,5,2800,677,548,0,"a.sham",2,"press",1,"NGW","noGo",0,152,2,20,"neutral","Win",NA,"no_press",1,"no_press",NA,NA
"281",1123,"DNHR0900",10,12,11,10,9,2102,998,0,1,"a.sham",2,"no_press",0,"NGW","noGo",1,163,3,1,"win","Win","win","no_press",1,"no_press","no_press",0
"282",1130,"DNHR0900",10,12,11,10,9,1770,896,0,1,"a.sham",2,"no_press",0,"NGW","noGo",1,170,3,2,"win","Win","win","no_press",1,"no_press","no_press",0
"283",1134,"DNHR0900",10,12,11,10,9,2229,885,0,1,"a.sham",2,"no_press",0,"NGW","noGo",1,174,3,3,"win","Win","win","no_press",1,"no_press","no_press",0
"284",1137,"DNHR0900",10,12,11,10,9,2298,543,0,1,"a.sham",2,"no_press",0,"NGW","noGo",1,177,3,4,"win","Win","win","no_press",1,"no_press","no_press",0
"285",1146,"DNHR0900",10,12,11,10,9,2355,674,0,1,"a.sham",2,"no_press",0,"NGW","noGo",1,186,3,5,"win","Win","win","no_press",1,"no_press","no_press",0
"286",1152,"DNHR0900",10,12,11,10,9,2822,746,0,1,"a.sham",2,"no_press",0,"NGW","noGo",1,192,3,6,"win","Win","win","no_press",1,"no_press","no_press",0
"287",1155,"DNHR0900",10,12,11,10,9,1238,993,0,1,"a.sham",2,"no_press",0,"NGW","noGo",1,195,3,7,"win","Win","win","no_press",1,"no_press","no_press",0
"288",1156,"DNHR0900",10,12,11,10,9,2324,874,0,1,"a.sham",2,"no_press",0,"NGW","noGo",1,196,3,8,"win","Win","win","no_press",1,"no_press","no_press",0
"289",1157,"DNHR0900",10,12,11,10,9,2460,659,0,0,"a.sham",2,"no_press",0,"NGW","noGo",1,197,3,9,"neutral","Win",NA,"no_press",0,NA,"no_press",0
"290",1158,"DNHR0900",10,12,11,10,9,1874,826,0,1,"a.sham",2,"no_press",0,"NGW","noGo",1,198,3,10,"win","Win","win","no_press",1,"no_press","no_press",0
"291",1164,"DNHR0900",10,12,11,10,9,1246,823,0,1,"a.sham",2,"no_press",0,"NGW","noGo",1,204,3,11,"win","Win","win","no_press",1,"no_press","no_press",0
"292",1172,"DNHR0900",10,12,11,10,9,1880,860,0,0,"a.sham",2,"no_press",0,"NGW","noGo",1,212,3,12,"neutral","Win",NA,"no_press",0,NA,"no_press",0
"293",1175,"DNHR0900",10,12,11,10,9,2354,678,0,0,"a.sham",2,"no_press",0,"NGW","noGo",1,215,3,13,"neutral","Win",NA,"no_press",0,NA,"no_press",0
"294",1176,"DNHR0900",10,12,11,10,9,2678,731,0,1,"a.sham",2,"no_press",0,"NGW","noGo",1,216,3,14,"win","Win","win","no_press",1,"no_press","no_press",0
"295",1180,"DNHR0900",10,12,11,10,9,2422,628,0,1,"a.sham",2,"no_press",0,"NGW","noGo",1,220,3,15,"win","Win","win","no_press",1,"no_press","no_press",0
"296",1192,"DNHR0900",10,12,11,10,9,1874,591,0,1,"a.sham",2,"no_press",0,"NGW","noGo",1,232,3,16,"win","Win","win","no_press",1,"no_press","no_press",0
"297",1193,"DNHR0900",10,12,11,10,9,1898,526,0,0,"a.sham",2,"no_press",0,"NGW","noGo",1,233,3,17,"neutral","Win",NA,"no_press",0,NA,"no_press",0
"298",1196,"DNHR0900",10,12,11,10,9,1485,703,0,1,"a.sham",2,"no_press",0,"NGW","noGo",1,236,3,18,"win","Win","win","no_press",1,"no_press","no_press",0
"299",1199,"DNHR0900",10,12,11,10,9,1788,923,0,1,"a.sham",2,"no_press",0,"NGW","noGo",1,239,3,19,"win","Win","win","no_press",1,"no_press","no_press",0
"300",1200,"DNHR0900",10,12,11,10,9,1743,807,0,1,"a.sham",2,"no_press",0,"NGW","noGo",1,240,3,20,"win","Win","win","press",1,"press",NA,NA
"301",1205,"DNHR0900",14,16,15,14,13,2074,978,1029,1,"a.sham",2,"press",1,"NGW","noGo",0,245,4,1,"win","Win","win","press",0,NA,"press",1
"302",1206,"DNHR0900",14,16,15,14,13,2926,906,550,0,"a.sham",2,"press",1,"NGW","noGo",0,246,4,2,"neutral","Win",NA,"press",1,"press","press",1
"303",1207,"DNHR0900",14,16,15,14,13,1638,931,761,0,"a.sham",2,"press",1,"NGW","noGo",0,247,4,3,"neutral","Win",NA,"press",1,"press","press",1
"304",1210,"DNHR0900",14,16,15,14,13,1659,859,672,0,"a.sham",2,"press",1,"NGW","noGo",0,250,4,4,"neutral","Win",NA,"press",1,"press","press",1
"305",1215,"DNHR0900",14,16,15,14,13,1871,966,869,0,"a.sham",2,"press",1,"NGW","noGo",0,255,4,5,"neutral","Win",NA,"press",1,"press","press",1
"306",1217,"DNHR0900",14,16,15,14,13,2566,654,592,0,"a.sham",2,"press",1,"NGW","noGo",0,257,4,6,"neutral","Win",NA,"press",1,"press","press",1
"307",1220,"DNHR0900",14,16,15,14,13,2253,546,565,0,"a.sham",2,"press",1,"NGW","noGo",0,260,4,7,"neutral","Win",NA,"press",1,"press","press",1
"308",1229,"DNHR0900",14,16,15,14,13,1919,604,701,1,"a.sham",2,"press",1,"NGW","noGo",0,269,4,8,"win","Win","win","press",0,NA,"press",1
"309",1236,"DNHR0900",14,16,15,14,13,2336,863,597,0,"a.sham",2,"press",1,"NGW","noGo",0,276,4,9,"neutral","Win",NA,"press",1,"press","press",1
"310",1244,"DNHR0900",14,16,15,14,13,2173,863,532,1,"a.sham",2,"press",1,"NGW","noGo",0,284,4,10,"win","Win","win","no_press",0,NA,"no_press",0
"311",1245,"DNHR0900",14,16,15,14,13,1198,533,0,1,"a.sham",2,"no_press",0,"NGW","noGo",1,285,4,11,"win","Win","win","press",1,"press","press",1
"312",1252,"DNHR0900",14,16,15,14,13,1379,690,658,0,"a.sham",2,"press",1,"NGW","noGo",0,292,4,12,"neutral","Win",NA,"no_press",1,"no_press","no_press",0
"313",1258,"DNHR0900",14,16,15,14,13,1851,780,0,1,"a.sham",2,"no_press",0,"NGW","noGo",1,298,4,13,"win","Win","win","press",1,"press","press",1
"314",1259,"DNHR0900",14,16,15,14,13,1743,962,680,1,"a.sham",2,"press",1,"NGW","noGo",0,299,4,14,"win","Win","win","press",0,NA,"press",1
"315",1264,"DNHR0900",14,16,15,14,13,2107,827,1036,0,"a.sham",2,"press",1,"NGW","noGo",0,304,4,15,"neutral","Win",NA,"press",1,"press","press",1
"316",1269,"DNHR0900",14,16,15,14,13,2925,743,753,0,"a.sham",2,"press",1,"NGW","noGo",0,309,4,16,"neutral","Win",NA,"press",1,"press","press",1
"317",1270,"DNHR0900",14,16,15,14,13,2095,521,703,0,"a.sham",2,"press",1,"NGW","noGo",0,310,4,17,"neutral","Win",NA,"press",1,"press","press",1
"318",1271,"DNHR0900",14,16,15,14,13,1595,783,1144,0,"a.sham",2,"press",1,"NGW","noGo",0,311,4,18,"neutral","Win",NA,"press",1,"press","press",1
"319",1275,"DNHR0900",14,16,15,14,13,1820,668,722,0,"a.sham",2,"press",1,"NGW","noGo",0,315,4,19,"neutral","Win",NA,"no_press",1,"no_press","no_press",0
"320",1277,"DNHR0900",14,16,15,14,13,1461,533,0,1,"a.sham",2,"no_press",0,"NGW","noGo",1,317,4,20,"win","Win","win",NA,1,NA,NA,NA
"321",1281,"EEMR0429",2,4,3,2,1,2251,782,0,1,"a.sham",2,"no_press",0,"NGW","noGo",1,1,1,1,"win","Win","win","no_press",1,"no_press","no_press",0
"322",1286,"EEMR0429",2,4,3,2,1,1573,910,0,1,"a.sham",2,"no_press",0,"NGW","noGo",1,6,1,2,"win","Win","win","no_press",1,"no_press","no_press",0
"323",1290,"EEMR0429",2,4,3,2,1,2065,935,0,1,"a.sham",2,"no_press",0,"NGW","noGo",1,10,1,3,"win","Win","win","no_press",1,"no_press","no_press",0
"324",1296,"EEMR0429",2,4,3,2,1,1212,735,0,0,"a.sham",2,"no_press",0,"NGW","noGo",1,16,1,4,"neutral","Win",NA,"no_press",0,NA,"no_press",0
"325",1297,"EEMR0429",2,4,3,2,1,1286,960,0,1,"a.sham",2,"no_press",0,"NGW","noGo",1,17,1,5,"win","Win","win","no_press",1,"no_press","no_press",0
"326",1298,"EEMR0429",2,4,3,2,1,2374,521,0,1,"a.sham",2,"no_press",0,"NGW","noGo",1,18,1,6,"win","Win","win","no_press",1,"no_press","no_press",0
"327",1303,"EEMR0429",2,4,3,2,1,2121,706,0,1,"a.sham",2,"no_press",0,"NGW","noGo",1,23,1,7,"win","Win","win","no_press",1,"no_press","no_press",0
"328",1304,"EEMR0429",2,4,3,2,1,2040,961,0,1,"a.sham",2,"no_press",0,"NGW","noGo",1,24,1,8,"win","Win","win","no_press",1,"no_press","no_press",0
"329",1313,"EEMR0429",2,4,3,2,1,2822,752,0,1,"a.sham",2,"no_press",0,"NGW","noGo",1,33,1,9,"win","Win","win","no_press",1,"no_press","no_press",0
"330",1316,"EEMR0429",2,4,3,2,1,1539,816,0,0,"a.sham",2,"no_press",0,"NGW","noGo",1,36,1,10,"neutral","Win",NA,"no_press",0,NA,"no_press",0
"331",1318,"EEMR0429",2,4,3,2,1,1782,905,0,1,"a.sham",2,"no_press",0,"NGW","noGo",1,38,1,11,"win","Win","win","no_press",1,"no_press","no_press",0
"332",1320,"EEMR0429",2,4,3,2,1,2527,615,0,1,"a.sham",2,"no_press",0,"NGW","noGo",1,40,1,12,"win","Win","win","no_press",1,"no_press","no_press",0
"333",1324,"EEMR0429",2,4,3,2,1,1871,573,0,1,"a.sham",2,"no_press",0,"NGW","noGo",1,44,1,13,"win","Win","win","no_press",1,"no_press","no_press",0
"334",1335,"EEMR0429",2,4,3,2,1,1720,721,0,1,"a.sham",2,"no_press",0,"NGW","noGo",1,55,1,14,"win","Win","win","no_press",1,"no_press","no_press",0
"335",1336,"EEMR0429",2,4,3,2,1,2009,805,0,1,"a.sham",2,"no_press",0,"NGW","noGo",1,56,1,15,"win","Win","win","no_press",1,"no_press","no_press",0
"336",1339,"EEMR0429",2,4,3,2,1,1330,510,0,0,"a.sham",2,"no_press",0,"NGW","noGo",1,59,1,16,"neutral","Win",NA,"no_press",0,NA,"no_press",0
"337",1340,"EEMR0429",2,4,3,2,1,2587,657,0,1,"a.sham",2,"no_press",0,"NGW","noGo",1,60,1,17,"win","Win","win","no_press",1,"no_press","no_press",0
"338",1342,"EEMR0429",2,4,3,2,1,1469,615,0,1,"a.sham",2,"no_press",0,"NGW","noGo",1,62,1,18,"win","Win","win","no_press",1,"no_press","no_press",0
"339",1344,"EEMR0429",2,4,3,2,1,2355,967,0,0,"a.sham",2,"no_press",0,"NGW","noGo",1,64,1,19,"neutral","Win",NA,"no_press",0,NA,"no_press",0
"340",1358,"EEMR0429",2,4,3,2,1,1770,920,0,1,"a.sham",2,"no_press",0,"NGW","noGo",1,78,1,20,"win","Win","win","no_press",1,"no_press",NA,NA
"341",1367,"EEMR0429",6,8,5,6,7,1480,836,0,1,"a.sham",2,"no_press",0,"NGW","noGo",1,87,2,1,"win","Win","win","no_press",1,"no_press","no_press",0
"342",1372,"EEMR0429",6,8,5,6,7,1510,573,0,1,"a.sham",2,"no_press",0,"NGW","noGo",1,92,2,2,"win","Win","win","no_press",1,"no_press","no_press",0
"343",1376,"EEMR0429",6,8,5,6,7,1967,608,0,1,"a.sham",2,"no_press",0,"NGW","noGo",1,96,2,3,"win","Win","win","no_press",1,"no_press","no_press",0
"344",1379,"EEMR0429",6,8,5,6,7,1792,500,0,1,"a.sham",2,"no_press",0,"NGW","noGo",1,99,2,4,"win","Win","win","no_press",1,"no_press","no_press",0
"345",1381,"EEMR0429",6,8,5,6,7,1841,800,0,1,"a.sham",2,"no_press",0,"NGW","noGo",1,101,2,5,"win","Win","win","no_press",1,"no_press","no_press",0
"346",1383,"EEMR0429",6,8,5,6,7,2767,689,0,1,"a.sham",2,"no_press",0,"NGW","noGo",1,103,2,6,"win","Win","win","no_press",1,"no_press","no_press",0
"347",1384,"EEMR0429",6,8,5,6,7,2936,611,0,1,"a.sham",2,"no_press",0,"NGW","noGo",1,104,2,7,"win","Win","win","no_press",1,"no_press","no_press",0
"348",1392,"EEMR0429",6,8,5,6,7,1503,523,0,0,"a.sham",2,"no_press",0,"NGW","noGo",1,112,2,8,"neutral","Win",NA,"no_press",0,NA,"no_press",0
"349",1394,"EEMR0429",6,8,5,6,7,2566,814,0,1,"a.sham",2,"no_press",0,"NGW","noGo",1,114,2,9,"win","Win","win","no_press",1,"no_press","no_press",0
"350",1395,"EEMR0429",6,8,5,6,7,2484,935,0,1,"a.sham",2,"no_press",0,"NGW","noGo",1,115,2,10,"win","Win","win","no_press",1,"no_press","no_press",0
"351",1396,"EEMR0429",6,8,5,6,7,1368,977,0,1,"a.sham",2,"no_press",0,"NGW","noGo",1,116,2,11,"win","Win","win","no_press",1,"no_press","no_press",0
"352",1397,"EEMR0429",6,8,5,6,7,3024,730,0,0,"a.sham",2,"no_press",0,"NGW","noGo",1,117,2,12,"neutral","Win",NA,"no_press",0,NA,"no_press",0
"353",1400,"EEMR0429",6,8,5,6,7,3367,874,0,1,"a.sham",2,"no_press",0,"NGW","noGo",1,120,2,13,"win","Win","win","no_press",1,"no_press","no_press",0
"354",1408,"EEMR0429",6,8,5,6,7,1575,963,0,1,"a.sham",2,"no_press",0,"NGW","noGo",1,128,2,14,"win","Win","win","no_press",1,"no_press","no_press",0
"355",1410,"EEMR0429",6,8,5,6,7,2255,512,0,1,"a.sham",2,"no_press",0,"NGW","noGo",1,130,2,15,"win","Win","win","no_press",1,"no_press","no_press",0
"356",1425,"EEMR0429",6,8,5,6,7,2185,770,0,0,"a.sham",2,"no_press",0,"NGW","noGo",1,145,2,16,"neutral","Win",NA,"no_press",0,NA,"no_press",0
"357",1429,"EEMR0429",6,8,5,6,7,1820,914,0,1,"a.sham",2,"no_press",0,"NGW","noGo",1,149,2,17,"win","Win","win","no_press",1,"no_press","no_press",0
"358",1433,"EEMR0429",6,8,5,6,7,1815,881,0,1,"a.sham",2,"no_press",0,"NGW","noGo",1,153,2,18,"win","Win","win","no_press",1,"no_press","no_press",0
"359",1438,"EEMR0429",6,8,5,6,7,1919,716,0,1,"a.sham",2,"no_press",0,"NGW","noGo",1,158,2,19,"win","Win","win","no_press",1,"no_press","no_press",0
"360",1439,"EEMR0429",6,8,5,6,7,1997,873,0,0,"a.sham",2,"no_press",0,"NGW","noGo",1,159,2,20,"neutral","Win",NA,"no_press",0,NA,NA,NA
"361",1442,"EEMR0429",12,10,9,12,11,1900,974,0,1,"a.sham",2,"no_press",0,"NGW","noGo",1,162,3,1,"win","Win","win","no_press",1,"no_press","no_press",0
"362",1445,"EEMR0429",12,10,9,12,11,2008,701,0,1,"a.sham",2,"no_press",0,"NGW","noGo",1,165,3,2,"win","Win","win","no_press",1,"no_press","no_press",0
"363",1454,"EEMR0429",12,10,9,12,11,1706,745,0,1,"a.sham",2,"no_press",0,"NGW","noGo",1,174,3,3,"win","Win","win","no_press",1,"no_press","no_press",0
"364",1456,"EEMR0429",12,10,9,12,11,1988,595,0,0,"a.sham",2,"no_press",0,"NGW","noGo",1,176,3,4,"neutral","Win",NA,"no_press",0,NA,"no_press",0
"365",1460,"EEMR0429",12,10,9,12,11,2289,746,0,1,"a.sham",2,"no_press",0,"NGW","noGo",1,180,3,5,"win","Win","win","no_press",1,"no_press","no_press",0
"366",1468,"EEMR0429",12,10,9,12,11,1576,854,0,1,"a.sham",2,"no_press",0,"NGW","noGo",1,188,3,6,"win","Win","win","no_press",1,"no_press","no_press",0
"367",1469,"EEMR0429",12,10,9,12,11,2076,718,0,1,"a.sham",2,"no_press",0,"NGW","noGo",1,189,3,7,"win","Win","win","no_press",1,"no_press","no_press",0
"368",1470,"EEMR0429",12,10,9,12,11,1595,784,0,1,"a.sham",2,"no_press",0,"NGW","noGo",1,190,3,8,"win","Win","win","no_press",1,"no_press","no_press",0
"369",1479,"EEMR0429",12,10,9,12,11,2273,943,0,1,"a.sham",2,"no_press",0,"NGW","noGo",1,199,3,9,"win","Win","win","no_press",1,"no_press","no_press",0
"370",1480,"EEMR0429",12,10,9,12,11,1832,905,0,0,"a.sham",2,"no_press",0,"NGW","noGo",1,200,3,10,"neutral","Win",NA,"no_press",0,NA,"no_press",0
"371",1481,"EEMR0429",12,10,9,12,11,1720,893,0,1,"a.sham",2,"no_press",0,"NGW","noGo",1,201,3,11,"win","Win","win","no_press",1,"no_press","no_press",0
"372",1482,"EEMR0429",12,10,9,12,11,1841,723,0,0,"a.sham",2,"no_press",0,"NGW","noGo",1,202,3,12,"neutral","Win",NA,"no_press",0,NA,"no_press",0
"373",1484,"EEMR0429",12,10,9,12,11,2080,606,0,1,"a.sham",2,"no_press",0,"NGW","noGo",1,204,3,13,"win","Win","win","no_press",1,"no_press","no_press",0
"374",1486,"EEMR0429",12,10,9,12,11,1000,824,0,1,"a.sham",2,"no_press",0,"NGW","noGo",1,206,3,14,"win","Win","win","no_press",1,"no_press","no_press",0
"375",1489,"EEMR0429",12,10,9,12,11,1775,827,0,1,"a.sham",2,"no_press",0,"NGW","noGo",1,209,3,15,"win","Win","win","no_press",1,"no_press","no_press",0
"376",1504,"EEMR0429",12,10,9,12,11,1655,806,0,1,"a.sham",2,"no_press",0,"NGW","noGo",1,224,3,16,"win","Win","win","no_press",1,"no_press","no_press",0
"377",1505,"EEMR0429",12,10,9,12,11,2231,972,0,1,"a.sham",2,"no_press",0,"NGW","noGo",1,225,3,17,"win","Win","win","no_press",1,"no_press","no_press",0
"378",1507,"EEMR0429",12,10,9,12,11,2275,541,0,0,"a.sham",2,"no_press",0,"NGW","noGo",1,227,3,18,"neutral","Win",NA,"no_press",0,NA,"no_press",0
"379",1508,"EEMR0429",12,10,9,12,11,1834,916,0,1,"a.sham",2,"no_press",0,"NGW","noGo",1,228,3,19,"win","Win","win","no_press",1,"no_press","no_press",0
"380",1514,"EEMR0429",12,10,9,12,11,2668,966,0,1,"a.sham",2,"no_press",0,"NGW","noGo",1,234,3,20,"win","Win","win","no_press",1,"no_press",NA,NA
"381",1522,"EEMR0429",16,14,13,16,15,2689,515,0,1,"a.sham",2,"no_press",0,"NGW","noGo",1,242,4,1,"win","Win","win","no_press",1,"no_press","no_press",0
"382",1523,"EEMR0429",16,14,13,16,15,1857,933,0,0,"a.sham",2,"no_press",0,"NGW","noGo",1,243,4,2,"neutral","Win",NA,"no_press",0,NA,"no_press",0
"383",1524,"EEMR0429",16,14,13,16,15,1497,914,0,1,"a.sham",2,"no_press",0,"NGW","noGo",1,244,4,3,"win","Win","win","no_press",1,"no_press","no_press",0
"384",1526,"EEMR0429",16,14,13,16,15,1851,768,0,1,"a.sham",2,"no_press",0,"NGW","noGo",1,246,4,4,"win","Win","win","no_press",1,"no_press","no_press",0
"385",1529,"EEMR0429",16,14,13,16,15,2547,924,0,1,"a.sham",2,"no_press",0,"NGW","noGo",1,249,4,5,"win","Win","win","no_press",1,"no_press","no_press",0
"386",1545,"EEMR0429",16,14,13,16,15,1757,647,0,1,"a.sham",2,"no_press",0,"NGW","noGo",1,265,4,6,"win","Win","win","no_press",1,"no_press","no_press",0
"387",1557,"EEMR0429",16,14,13,16,15,1984,936,0,1,"a.sham",2,"no_press",0,"NGW","noGo",1,277,4,7,"win","Win","win","no_press",1,"no_press","no_press",0
"388",1560,"EEMR0429",16,14,13,16,15,2246,786,0,1,"a.sham",2,"no_press",0,"NGW","noGo",1,280,4,8,"win","Win","win","no_press",1,"no_press","no_press",0
"389",1568,"EEMR0429",16,14,13,16,15,1668,771,0,1,"a.sham",2,"no_press",0,"NGW","noGo",1,288,4,9,"win","Win","win","no_press",1,"no_press","no_press",0
"390",1576,"EEMR0429",16,14,13,16,15,2086,604,0,1,"a.sham",2,"no_press",0,"NGW","noGo",1,296,4,10,"win","Win","win","no_press",1,"no_press","no_press",0
"391",1581,"EEMR0429",16,14,13,16,15,1975,863,0,1,"a.sham",2,"no_press",0,"NGW","noGo",1,301,4,11,"win","Win","win","no_press",1,"no_press","no_press",0
"392",1582,"EEMR0429",16,14,13,16,15,1318,528,0,1,"a.sham",2,"no_press",0,"NGW","noGo",1,302,4,12,"win","Win","win","no_press",1,"no_press","no_press",0
"393",1583,"EEMR0429",16,14,13,16,15,1880,667,0,1,"a.sham",2,"no_press",0,"NGW","noGo",1,303,4,13,"win","Win","win","no_press",1,"no_press","no_press",0
"394",1585,"EEMR0429",16,14,13,16,15,2256,526,0,0,"a.sham",2,"no_press",0,"NGW","noGo",1,305,4,14,"neutral","Win",NA,"no_press",0,NA,"no_press",0
"395",1586,"EEMR0429",16,14,13,16,15,2550,726,0,1,"a.sham",2,"no_press",0,"NGW","noGo",1,306,4,15,"win","Win","win","no_press",1,"no_press","no_press",0
"396",1587,"EEMR0429",16,14,13,16,15,2087,815,0,0,"a.sham",2,"no_press",0,"NGW","noGo",1,307,4,16,"neutral","Win",NA,"no_press",0,NA,"no_press",0
"397",1589,"EEMR0429",16,14,13,16,15,1803,914,0,1,"a.sham",2,"no_press",0,"NGW","noGo",1,309,4,17,"win","Win","win","no_press",1,"no_press","no_press",0
"398",1590,"EEMR0429",16,14,13,16,15,1000,535,0,0,"a.sham",2,"no_press",0,"NGW","noGo",1,310,4,18,"neutral","Win",NA,"no_press",0,NA,"no_press",0
"399",1596,"EEMR0429",16,14,13,16,15,2127,623,0,1,"a.sham",2,"no_press",0,"NGW","noGo",1,316,4,19,"win","Win","win","no_press",1,"no_press","no_press",0
"400",1597,"EEMR0429",16,14,13,16,15,1978,524,0,1,"a.sham",2,"no_press",0,"NGW","noGo",1,317,4,20,"win","Win","win",NA,1,NA,NA,NA
"401",1611,"FNMA0105",2,4,3,2,1,2336,813,927,0,"a.sham",1,"press",1,"NGW","noGo",0,11,1,1,"neutral","Win",NA,"no_press",1,"no_press","no_press",0
"402",1612,"FNMA0105",2,4,3,2,1,2004,604,0,1,"a.sham",1,"no_press",0,"NGW","noGo",1,12,1,2,"win","Win","win","press",1,"press","press",1
"403",1615,"FNMA0105",2,4,3,2,1,1932,608,835,0,"a.sham",1,"press",1,"NGW","noGo",0,15,1,3,"neutral","Win",NA,"press",1,"press","press",1
"404",1618,"FNMA0105",2,4,3,2,1,1795,712,776,0,"a.sham",1,"press",1,"NGW","noGo",0,18,1,4,"neutral","Win",NA,"press",1,"press","press",1
"405",1629,"FNMA0105",2,4,3,2,1,2116,561,520,0,"a.sham",1,"press",1,"NGW","noGo",0,29,1,5,"neutral","Win",NA,"press",1,"press","press",1
"406",1630,"FNMA0105",2,4,3,2,1,2045,512,465,1,"a.sham",1,"press",1,"NGW","noGo",0,30,1,6,"win","Win","win","press",0,NA,"press",1
"407",1632,"FNMA0105",2,4,3,2,1,2274,627,638,0,"a.sham",1,"press",1,"NGW","noGo",0,32,1,7,"neutral","Win",NA,"press",1,"press","press",1
"408",1633,"FNMA0105",2,4,3,2,1,2088,917,493,1,"a.sham",1,"press",1,"NGW","noGo",0,33,1,8,"win","Win","win","press",0,NA,"press",1
"409",1635,"FNMA0105",2,4,3,2,1,1608,524,673,1,"a.sham",1,"press",1,"NGW","noGo",0,35,1,9,"win","Win","win","press",0,NA,"press",1
"410",1640,"FNMA0105",2,4,3,2,1,1703,536,676,0,"a.sham",1,"press",1,"NGW","noGo",0,40,1,10,"neutral","Win",NA,"press",1,"press","press",1
"411",1643,"FNMA0105",2,4,3,2,1,2107,546,506,0,"a.sham",1,"press",1,"NGW","noGo",0,43,1,11,"neutral","Win",NA,"press",1,"press","press",1
"412",1644,"FNMA0105",2,4,3,2,1,2794,844,894,0,"a.sham",1,"press",1,"NGW","noGo",0,44,1,12,"neutral","Win",NA,"press",1,"press","press",1
"413",1647,"FNMA0105",2,4,3,2,1,1000,769,837,0,"a.sham",1,"press",1,"NGW","noGo",0,47,1,13,"neutral","Win",NA,"press",1,"press","press",1
"414",1658,"FNMA0105",2,4,3,2,1,2348,729,623,0,"a.sham",1,"press",1,"NGW","noGo",0,58,1,14,"neutral","Win",NA,"press",1,"press","press",1
"415",1660,"FNMA0105",2,4,3,2,1,2234,757,563,0,"a.sham",1,"press",1,"NGW","noGo",0,60,1,15,"neutral","Win",NA,"press",1,"press","press",1
"416",1668,"FNMA0105",2,4,3,2,1,1509,825,659,0,"a.sham",1,"press",1,"NGW","noGo",0,68,1,16,"neutral","Win",NA,"no_press",1,"no_press","no_press",0
"417",1669,"FNMA0105",2,4,3,2,1,1772,948,0,0,"a.sham",1,"no_press",0,"NGW","noGo",1,69,1,17,"neutral","Win",NA,"no_press",0,NA,"no_press",0
"418",1670,"FNMA0105",2,4,3,2,1,1890,623,0,1,"a.sham",1,"no_press",0,"NGW","noGo",1,70,1,18,"win","Win","win","no_press",1,"no_press","no_press",0
"419",1671,"FNMA0105",2,4,3,2,1,2664,778,0,1,"a.sham",1,"no_press",0,"NGW","noGo",1,71,1,19,"win","Win","win","press",1,"press","press",1
"420",1680,"FNMA0105",2,4,3,2,1,2224,804,823,0,"a.sham",1,"press",1,"NGW","noGo",0,80,1,20,"neutral","Win",NA,"press",1,"press",NA,NA
"421",1681,"FNMA0105",8,6,7,8,5,1798,933,981,0,"a.sham",1,"press",1,"NGW","noGo",0,81,2,1,"neutral","Win",NA,"no_press",1,"no_press","no_press",0
"422",1682,"FNMA0105",8,6,7,8,5,3276,925,0,1,"a.sham",1,"no_press",0,"NGW","noGo",1,82,2,2,"win","Win","win","no_press",1,"no_press","no_press",0
"423",1697,"FNMA0105",8,6,7,8,5,1484,941,0,1,"a.sham",1,"no_press",0,"NGW","noGo",1,97,2,3,"win","Win","win","no_press",1,"no_press","no_press",0
"424",1701,"FNMA0105",8,6,7,8,5,2330,573,0,0,"a.sham",1,"no_press",0,"NGW","noGo",1,101,2,4,"neutral","Win",NA,"no_press",0,NA,"no_press",0
"425",1702,"FNMA0105",8,6,7,8,5,1678,513,0,1,"a.sham",1,"no_press",0,"NGW","noGo",1,102,2,5,"win","Win","win","press",1,"press","press",1
"426",1706,"FNMA0105",8,6,7,8,5,2253,922,538,0,"a.sham",1,"press",1,"NGW","noGo",0,106,2,6,"neutral","Win",NA,"press",1,"press","press",1
"427",1708,"FNMA0105",8,6,7,8,5,1304,908,746,0,"a.sham",1,"press",1,"NGW","noGo",0,108,2,7,"neutral","Win",NA,"press",1,"press","press",1
"428",1709,"FNMA0105",8,6,7,8,5,1639,765,509,0,"a.sham",1,"press",1,"NGW","noGo",0,109,2,8,"neutral","Win",NA,"no_press",1,"no_press","no_press",0
"429",1713,"FNMA0105",8,6,7,8,5,2291,700,0,1,"a.sham",1,"no_press",0,"NGW","noGo",1,113,2,9,"win","Win","win","press",1,"press","press",1
"430",1715,"FNMA0105",8,6,7,8,5,2359,833,1141,1,"a.sham",1,"press",1,"NGW","noGo",0,115,2,10,"win","Win","win","press",0,NA,"press",1
"431",1717,"FNMA0105",8,6,7,8,5,2557,930,667,0,"a.sham",1,"press",1,"NGW","noGo",0,117,2,11,"neutral","Win",NA,"press",1,"press","press",1
"432",1722,"FNMA0105",8,6,7,8,5,1721,987,507,0,"a.sham",1,"press",1,"NGW","noGo",0,122,2,12,"neutral","Win",NA,"press",1,"press","press",1
"433",1724,"FNMA0105",8,6,7,8,5,2511,763,573,0,"a.sham",1,"press",1,"NGW","noGo",0,124,2,13,"neutral","Win",NA,"press",1,"press","press",1
"434",1727,"FNMA0105",8,6,7,8,5,2066,606,504,1,"a.sham",1,"press",1,"NGW","noGo",0,127,2,14,"win","Win","win","press",0,NA,"press",1
"435",1736,"FNMA0105",8,6,7,8,5,2549,503,581,0,"a.sham",1,"press",1,"NGW","noGo",0,136,2,15,"neutral","Win",NA,"press",1,"press","press",1
"436",1739,"FNMA0105",8,6,7,8,5,1752,595,577,0,"a.sham",1,"press",1,"NGW","noGo",0,139,2,16,"neutral","Win",NA,"press",1,"press","press",1
"437",1740,"FNMA0105",8,6,7,8,5,1948,896,522,1,"a.sham",1,"press",1,"NGW","noGo",0,140,2,17,"win","Win","win","press",0,NA,"press",1
"438",1749,"FNMA0105",8,6,7,8,5,1196,678,465,0,"a.sham",1,"press",1,"NGW","noGo",0,149,2,18,"neutral","Win",NA,"press",1,"press","press",1
"439",1752,"FNMA0105",8,6,7,8,5,2964,954,452,0,"a.sham",1,"press",1,"NGW","noGo",0,152,2,19,"neutral","Win",NA,"no_press",1,"no_press","no_press",0
"440",1760,"FNMA0105",8,6,7,8,5,2103,728,0,1,"a.sham",1,"no_press",0,"NGW","noGo",1,160,2,20,"win","Win","win","no_press",1,"no_press",NA,NA
"441",1770,"FNMA0105",12,10,11,12,9,1784,564,0,1,"a.sham",1,"no_press",0,"NGW","noGo",1,170,3,1,"win","Win","win","no_press",1,"no_press","no_press",0
"442",1775,"FNMA0105",12,10,11,12,9,2822,621,0,1,"a.sham",1,"no_press",0,"NGW","noGo",1,175,3,2,"win","Win","win","no_press",1,"no_press","no_press",0
"443",1780,"FNMA0105",12,10,11,12,9,1000,906,0,1,"a.sham",1,"no_press",0,"NGW","noGo",1,180,3,3,"win","Win","win","no_press",1,"no_press","no_press",0
"444",1781,"FNMA0105",12,10,11,12,9,1939,785,0,1,"a.sham",1,"no_press",0,"NGW","noGo",1,181,3,4,"win","Win","win","no_press",1,"no_press","no_press",0
"445",1784,"FNMA0105",12,10,11,12,9,1845,859,0,1,"a.sham",1,"no_press",0,"NGW","noGo",1,184,3,5,"win","Win","win","no_press",1,"no_press","no_press",0
"446",1785,"FNMA0105",12,10,11,12,9,1266,652,0,0,"a.sham",1,"no_press",0,"NGW","noGo",1,185,3,6,"neutral","Win",NA,"no_press",0,NA,"no_press",0
"447",1786,"FNMA0105",12,10,11,12,9,2318,747,0,1,"a.sham",1,"no_press",0,"NGW","noGo",1,186,3,7,"win","Win","win","no_press",1,"no_press","no_press",0
"448",1787,"FNMA0105",12,10,11,12,9,3515,786,0,1,"a.sham",1,"no_press",0,"NGW","noGo",1,187,3,8,"win","Win","win","no_press",1,"no_press","no_press",0
"449",1791,"FNMA0105",12,10,11,12,9,2273,980,0,1,"a.sham",1,"no_press",0,"NGW","noGo",1,191,3,9,"win","Win","win","no_press",1,"no_press","no_press",0
"450",1794,"FNMA0105",12,10,11,12,9,1885,853,0,1,"a.sham",1,"no_press",0,"NGW","noGo",1,194,3,10,"win","Win","win","press",1,"press","press",1
"451",1797,"FNMA0105",12,10,11,12,9,1990,691,574,0,"a.sham",1,"press",1,"NGW","noGo",0,197,3,11,"neutral","Win",NA,"press",1,"press","press",1
"452",1806,"FNMA0105",12,10,11,12,9,1445,533,499,0,"a.sham",1,"press",1,"NGW","noGo",0,206,3,12,"neutral","Win",NA,"no_press",1,"no_press","no_press",0
"453",1807,"FNMA0105",12,10,11,12,9,1559,757,0,1,"a.sham",1,"no_press",0,"NGW","noGo",1,207,3,13,"win","Win","win","no_press",1,"no_press","no_press",0
"454",1809,"FNMA0105",12,10,11,12,9,2252,975,0,1,"a.sham",1,"no_press",0,"NGW","noGo",1,209,3,14,"win","Win","win","no_press",1,"no_press","no_press",0
"455",1816,"FNMA0105",12,10,11,12,9,2131,653,0,1,"a.sham",1,"no_press",0,"NGW","noGo",1,216,3,15,"win","Win","win","no_press",1,"no_press","no_press",0
"456",1822,"FNMA0105",12,10,11,12,9,1717,537,0,0,"a.sham",1,"no_press",0,"NGW","noGo",1,222,3,16,"neutral","Win",NA,"no_press",0,NA,"no_press",0
"457",1826,"FNMA0105",12,10,11,12,9,1588,532,0,0,"a.sham",1,"no_press",0,"NGW","noGo",1,226,3,17,"neutral","Win",NA,"no_press",0,NA,"no_press",0
"458",1829,"FNMA0105",12,10,11,12,9,2169,836,0,1,"a.sham",1,"no_press",0,"NGW","noGo",1,229,3,18,"win","Win","win","no_press",1,"no_press","no_press",0
"459",1830,"FNMA0105",12,10,11,12,9,2103,969,0,0,"a.sham",1,"no_press",0,"NGW","noGo",1,230,3,19,"neutral","Win",NA,"no_press",0,NA,"no_press",0
"460",1836,"FNMA0105",12,10,11,12,9,2121,977,0,1,"a.sham",1,"no_press",0,"NGW","noGo",1,236,3,20,"win","Win","win","press",1,"press",NA,NA
"461",1842,"FNMA0105",16,14,13,16,15,1883,571,742,0,"a.sham",1,"press",1,"NGW","noGo",0,242,4,1,"neutral","Win",NA,"press",1,"press","press",1
"462",1844,"FNMA0105",16,14,13,16,15,1453,706,506,0,"a.sham",1,"press",1,"NGW","noGo",0,244,4,2,"neutral","Win",NA,"no_press",1,"no_press","no_press",0
"463",1846,"FNMA0105",16,14,13,16,15,2478,928,0,1,"a.sham",1,"no_press",0,"NGW","noGo",1,246,4,3,"win","Win","win","no_press",1,"no_press","no_press",0
"464",1850,"FNMA0105",16,14,13,16,15,1954,969,0,1,"a.sham",1,"no_press",0,"NGW","noGo",1,250,4,4,"win","Win","win","no_press",1,"no_press","no_press",0
"465",1856,"FNMA0105",16,14,13,16,15,3128,884,0,1,"a.sham",1,"no_press",0,"NGW","noGo",1,256,4,5,"win","Win","win","no_press",1,"no_press","no_press",0
"466",1859,"FNMA0105",16,14,13,16,15,2873,748,0,1,"a.sham",1,"no_press",0,"NGW","noGo",1,259,4,6,"win","Win","win","no_press",1,"no_press","no_press",0
"467",1867,"FNMA0105",16,14,13,16,15,1869,856,0,1,"a.sham",1,"no_press",0,"NGW","noGo",1,267,4,7,"win","Win","win","no_press",1,"no_press","no_press",0
"468",1868,"FNMA0105",16,14,13,16,15,2547,979,0,1,"a.sham",1,"no_press",0,"NGW","noGo",1,268,4,8,"win","Win","win","no_press",1,"no_press","no_press",0
"469",1879,"FNMA0105",16,14,13,16,15,2221,789,0,1,"a.sham",1,"no_press",0,"NGW","noGo",1,279,4,9,"win","Win","win","no_press",1,"no_press","no_press",0
"470",1880,"FNMA0105",16,14,13,16,15,1509,765,0,1,"a.sham",1,"no_press",0,"NGW","noGo",1,280,4,10,"win","Win","win","no_press",1,"no_press","no_press",0
"471",1884,"FNMA0105",16,14,13,16,15,2272,744,0,1,"a.sham",1,"no_press",0,"NGW","noGo",1,284,4,11,"win","Win","win","no_press",1,"no_press","no_press",0
"472",1885,"FNMA0105",16,14,13,16,15,2386,823,0,1,"a.sham",1,"no_press",0,"NGW","noGo",1,285,4,12,"win","Win","win","no_press",1,"no_press","no_press",0
"473",1887,"FNMA0105",16,14,13,16,15,2482,664,0,1,"a.sham",1,"no_press",0,"NGW","noGo",1,287,4,13,"win","Win","win","no_press",1,"no_press","no_press",0
"474",1898,"FNMA0105",16,14,13,16,15,1894,656,0,1,"a.sham",1,"no_press",0,"NGW","noGo",1,298,4,14,"win","Win","win","no_press",1,"no_press","no_press",0
"475",1903,"FNMA0105",16,14,13,16,15,1537,522,0,0,"a.sham",1,"no_press",0,"NGW","noGo",1,303,4,15,"neutral","Win",NA,"no_press",0,NA,"no_press",0
"476",1908,"FNMA0105",16,14,13,16,15,2664,957,0,0,"a.sham",1,"no_press",0,"NGW","noGo",1,308,4,16,"neutral","Win",NA,"no_press",0,NA,"no_press",0
"477",1909,"FNMA0105",16,14,13,16,15,3412,919,0,1,"a.sham",1,"no_press",0,"NGW","noGo",1,309,4,17,"win","Win","win","no_press",1,"no_press","no_press",0
"478",1911,"FNMA0105",16,14,13,16,15,1842,666,0,0,"a.sham",1,"no_press",0,"NGW","noGo",1,311,4,18,"neutral","Win",NA,"no_press",0,NA,"no_press",0
"479",1917,"FNMA0105",16,14,13,16,15,2288,892,0,0,"a.sham",1,"no_press",0,"NGW","noGo",1,317,4,19,"neutral","Win",NA,"no_press",0,NA,"no_press",0
"480",1920,"FNMA0105",16,14,13,16,15,1281,777,0,1,"a.sham",1,"no_press",0,"NGW","noGo",1,320,4,20,"win","Win","win",NA,1,NA,NA,NA
"481",1924,"GAEL0180",4,2,3,4,1,1343,829,423,1,"a.sham",2,"press",1,"NGW","noGo",0,4,1,1,"win","Win","win","press",0,NA,"press",1
"482",1931,"GAEL0180",4,2,3,4,1,1531,772,458,0,"a.sham",2,"press",1,"NGW","noGo",0,11,1,2,"neutral","Win",NA,"press",1,"press","press",1
"483",1932,"GAEL0180",4,2,3,4,1,1759,903,873,0,"a.sham",2,"press",1,"NGW","noGo",0,12,1,3,"neutral","Win",NA,"no_press",1,"no_press","no_press",0
"484",1939,"GAEL0180",4,2,3,4,1,1238,770,0,1,"a.sham",2,"no_press",0,"NGW","noGo",1,19,1,4,"win","Win","win","no_press",1,"no_press","no_press",0
"485",1943,"GAEL0180",4,2,3,4,1,2031,509,0,1,"a.sham",2,"no_press",0,"NGW","noGo",1,23,1,5,"win","Win","win","no_press",1,"no_press","no_press",0
"486",1950,"GAEL0180",4,2,3,4,1,2173,644,0,1,"a.sham",2,"no_press",0,"NGW","noGo",1,30,1,6,"win","Win","win","no_press",1,"no_press","no_press",0
"487",1952,"GAEL0180",4,2,3,4,1,2403,934,0,1,"a.sham",2,"no_press",0,"NGW","noGo",1,32,1,7,"win","Win","win","no_press",1,"no_press","no_press",0
"488",1955,"GAEL0180",4,2,3,4,1,2642,737,0,1,"a.sham",2,"no_press",0,"NGW","noGo",1,35,1,8,"win","Win","win","no_press",1,"no_press","no_press",0
"489",1958,"GAEL0180",4,2,3,4,1,1743,566,0,1,"a.sham",2,"no_press",0,"NGW","noGo",1,38,1,9,"win","Win","win","no_press",1,"no_press","no_press",0
"490",1967,"GAEL0180",4,2,3,4,1,2151,638,0,1,"a.sham",2,"no_press",0,"NGW","noGo",1,47,1,10,"win","Win","win","no_press",1,"no_press","no_press",0
"491",1971,"GAEL0180",4,2,3,4,1,1526,1000,0,1,"a.sham",2,"no_press",0,"NGW","noGo",1,51,1,11,"win","Win","win","no_press",1,"no_press","no_press",0
"492",1973,"GAEL0180",4,2,3,4,1,2503,934,0,1,"a.sham",2,"no_press",0,"NGW","noGo",1,53,1,12,"win","Win","win","no_press",1,"no_press","no_press",0
"493",1980,"GAEL0180",4,2,3,4,1,2668,943,0,1,"a.sham",2,"no_press",0,"NGW","noGo",1,60,1,13,"win","Win","win","no_press",1,"no_press","no_press",0
"494",1982,"GAEL0180",4,2,3,4,1,1427,948,0,0,"a.sham",2,"no_press",0,"NGW","noGo",1,62,1,14,"neutral","Win",NA,"no_press",0,NA,"no_press",0
"495",1983,"GAEL0180",4,2,3,4,1,1611,797,0,1,"a.sham",2,"no_press",0,"NGW","noGo",1,63,1,15,"win","Win","win","no_press",1,"no_press","no_press",0
"496",1986,"GAEL0180",4,2,3,4,1,1584,853,0,1,"a.sham",2,"no_press",0,"NGW","noGo",1,66,1,16,"win","Win","win","no_press",1,"no_press","no_press",0
"497",1988,"GAEL0180",4,2,3,4,1,1286,737,0,0,"a.sham",2,"no_press",0,"NGW","noGo",1,68,1,17,"neutral","Win",NA,"no_press",0,NA,"no_press",0
"498",1990,"GAEL0180",4,2,3,4,1,1803,821,0,0,"a.sham",2,"no_press",0,"NGW","noGo",1,70,1,18,"neutral","Win",NA,"no_press",0,NA,"no_press",0
"499",1991,"GAEL0180",4,2,3,4,1,1301,527,0,1,"a.sham",2,"no_press",0,"NGW","noGo",1,71,1,19,"win","Win","win","no_press",1,"no_press","no_press",0
"500",2000,"GAEL0180",4,2,3,4,1,2087,816,0,1,"a.sham",2,"no_press",0,"NGW","noGo",1,80,1,20,"win","Win","win","press",1,"press",NA,NA
"501",2003,"GAEL0180",8,6,7,8,5,2640,949,557,0,"a.sham",2,"press",1,"NGW","noGo",0,83,2,1,"neutral","Win",NA,"press",1,"press","press",1
"502",2008,"GAEL0180",8,6,7,8,5,2202,888,1429,0,"a.sham",2,"press",1,"NGW","noGo",0,88,2,2,"neutral","Win",NA,"press",1,"press","press",1
"503",2011,"GAEL0180",8,6,7,8,5,2276,604,623,0,"a.sham",2,"press",1,"NGW","noGo",0,91,2,3,"neutral","Win",NA,"press",1,"press","press",1
"504",2018,"GAEL0180",8,6,7,8,5,2829,811,572,0,"a.sham",2,"press",1,"NGW","noGo",0,98,2,4,"neutral","Win",NA,"no_press",1,"no_press","no_press",0
"505",2019,"GAEL0180",8,6,7,8,5,2089,915,0,1,"a.sham",2,"no_press",0,"NGW","noGo",1,99,2,5,"win","Win","win","no_press",1,"no_press","no_press",0
"506",2022,"GAEL0180",8,6,7,8,5,2734,648,0,1,"a.sham",2,"no_press",0,"NGW","noGo",1,102,2,6,"win","Win","win","no_press",1,"no_press","no_press",0
"507",2023,"GAEL0180",8,6,7,8,5,2484,831,0,1,"a.sham",2,"no_press",0,"NGW","noGo",1,103,2,7,"win","Win","win","no_press",1,"no_press","no_press",0
"508",2034,"GAEL0180",8,6,7,8,5,2244,998,0,1,"a.sham",2,"no_press",0,"NGW","noGo",1,114,2,8,"win","Win","win","no_press",1,"no_press","no_press",0
"509",2035,"GAEL0180",8,6,7,8,5,1469,530,0,1,"a.sham",2,"no_press",0,"NGW","noGo",1,115,2,9,"win","Win","win","no_press",1,"no_press","no_press",0
"510",2040,"GAEL0180",8,6,7,8,5,1500,676,0,1,"a.sham",2,"no_press",0,"NGW","noGo",1,120,2,10,"win","Win","win","no_press",1,"no_press","no_press",0
"511",2047,"GAEL0180",8,6,7,8,5,1861,582,0,0,"a.sham",2,"no_press",0,"NGW","noGo",1,127,2,11,"neutral","Win",NA,"no_press",0,NA,"no_press",0
"512",2052,"GAEL0180",8,6,7,8,5,3024,778,0,0,"a.sham",2,"no_press",0,"NGW","noGo",1,132,2,12,"neutral","Win",NA,"no_press",0,NA,"no_press",0
"513",2054,"GAEL0180",8,6,7,8,5,2374,930,0,1,"a.sham",2,"no_press",0,"NGW","noGo",1,134,2,13,"win","Win","win","no_press",1,"no_press","no_press",0
"514",2061,"GAEL0180",8,6,7,8,5,2078,641,0,1,"a.sham",2,"no_press",0,"NGW","noGo",1,141,2,14,"win","Win","win","no_press",1,"no_press","no_press",0
"515",2063,"GAEL0180",8,6,7,8,5,2818,972,0,1,"a.sham",2,"no_press",0,"NGW","noGo",1,143,2,15,"win","Win","win","no_press",1,"no_press","no_press",0
"516",2067,"GAEL0180",8,6,7,8,5,1669,947,0,0,"a.sham",2,"no_press",0,"NGW","noGo",1,147,2,16,"neutral","Win",NA,"no_press",0,NA,"no_press",0
"517",2071,"GAEL0180",8,6,7,8,5,2273,888,0,1,"a.sham",2,"no_press",0,"NGW","noGo",1,151,2,17,"win","Win","win","no_press",1,"no_press","no_press",0
"518",2072,"GAEL0180",8,6,7,8,5,2107,901,0,0,"a.sham",2,"no_press",0,"NGW","noGo",1,152,2,18,"neutral","Win",NA,"no_press",0,NA,"no_press",0
"519",2078,"GAEL0180",8,6,7,8,5,2305,950,0,1,"a.sham",2,"no_press",0,"NGW","noGo",1,158,2,19,"win","Win","win","no_press",1,"no_press","no_press",0
"520",2079,"GAEL0180",8,6,7,8,5,1749,629,0,1,"a.sham",2,"no_press",0,"NGW","noGo",1,159,2,20,"win","Win","win","no_press",1,"no_press",NA,NA
"521",2095,"GAEL0180",12,10,9,12,11,1181,922,0,1,"a.sham",2,"no_press",0,"NGW","noGo",1,175,3,1,"win","Win","win","no_press",1,"no_press","no_press",0
"522",2100,"GAEL0180",12,10,9,12,11,2525,879,0,1,"a.sham",2,"no_press",0,"NGW","noGo",1,180,3,2,"win","Win","win","no_press",1,"no_press","no_press",0
"523",2101,"GAEL0180",12,10,9,12,11,1503,622,0,1,"a.sham",2,"no_press",0,"NGW","noGo",1,181,3,3,"win","Win","win","no_press",1,"no_press","no_press",0
"524",2102,"GAEL0180",12,10,9,12,11,2422,662,0,0,"a.sham",2,"no_press",0,"NGW","noGo",1,182,3,4,"neutral","Win",NA,"no_press",0,NA,"no_press",0
"525",2104,"GAEL0180",12,10,9,12,11,2058,865,0,0,"a.sham",2,"no_press",0,"NGW","noGo",1,184,3,5,"neutral","Win",NA,"no_press",0,NA,"no_press",0
"526",2105,"GAEL0180",12,10,9,12,11,3435,786,0,1,"a.sham",2,"no_press",0,"NGW","noGo",1,185,3,6,"win","Win","win","no_press",1,"no_press","no_press",0
"527",2108,"GAEL0180",12,10,9,12,11,1636,730,0,0,"a.sham",2,"no_press",0,"NGW","noGo",1,188,3,7,"neutral","Win",NA,"no_press",0,NA,"no_press",0
"528",2110,"GAEL0180",12,10,9,12,11,1770,551,0,1,"a.sham",2,"no_press",0,"NGW","noGo",1,190,3,8,"win","Win","win","no_press",1,"no_press","no_press",0
"529",2111,"GAEL0180",12,10,9,12,11,1841,529,0,1,"a.sham",2,"no_press",0,"NGW","noGo",1,191,3,9,"win","Win","win","no_press",1,"no_press","no_press",0
"530",2115,"GAEL0180",12,10,9,12,11,2168,779,0,1,"a.sham",2,"no_press",0,"NGW","noGo",1,195,3,10,"win","Win","win","no_press",1,"no_press","no_press",0
"531",2116,"GAEL0180",12,10,9,12,11,2008,826,0,1,"a.sham",2,"no_press",0,"NGW","noGo",1,196,3,11,"win","Win","win","no_press",1,"no_press","no_press",0
"532",2121,"GAEL0180",12,10,9,12,11,2147,915,0,1,"a.sham",2,"no_press",0,"NGW","noGo",1,201,3,12,"win","Win","win","no_press",1,"no_press","no_press",0
"533",2123,"GAEL0180",12,10,9,12,11,3367,538,0,1,"a.sham",2,"no_press",0,"NGW","noGo",1,203,3,13,"win","Win","win","no_press",1,"no_press","no_press",0
"534",2125,"GAEL0180",12,10,9,12,11,1782,570,0,1,"a.sham",2,"no_press",0,"NGW","noGo",1,205,3,14,"win","Win","win","no_press",1,"no_press","no_press",0
"535",2126,"GAEL0180",12,10,9,12,11,2255,847,0,1,"a.sham",2,"no_press",0,"NGW","noGo",1,206,3,15,"win","Win","win","no_press",1,"no_press","no_press",0
"536",2130,"GAEL0180",12,10,9,12,11,1880,923,0,1,"a.sham",2,"no_press",0,"NGW","noGo",1,210,3,16,"win","Win","win","no_press",1,"no_press","no_press",0
"537",2139,"GAEL0180",12,10,9,12,11,1779,584,0,1,"a.sham",2,"no_press",0,"NGW","noGo",1,219,3,17,"win","Win","win","no_press",1,"no_press","no_press",0
"538",2140,"GAEL0180",12,10,9,12,11,1967,654,0,1,"a.sham",2,"no_press",0,"NGW","noGo",1,220,3,18,"win","Win","win","no_press",1,"no_press","no_press",0
"539",2148,"GAEL0180",12,10,9,12,11,1775,975,0,0,"a.sham",2,"no_press",0,"NGW","noGo",1,228,3,19,"neutral","Win",NA,"no_press",0,NA,"no_press",0
"540",2154,"GAEL0180",12,10,9,12,11,1978,995,0,1,"a.sham",2,"no_press",0,"NGW","noGo",1,234,3,20,"win","Win","win","no_press",1,"no_press",NA,NA
"541",2169,"GAEL0180",14,16,15,14,13,2194,684,0,1,"a.sham",2,"no_press",0,"NGW","noGo",1,249,4,1,"win","Win","win","no_press",1,"no_press","no_press",0
"542",2173,"GAEL0180",14,16,15,14,13,1268,681,0,1,"a.sham",2,"no_press",0,"NGW","noGo",1,253,4,2,"win","Win","win","no_press",1,"no_press","no_press",0
"543",2178,"GAEL0180",14,16,15,14,13,2107,782,0,1,"a.sham",2,"no_press",0,"NGW","noGo",1,258,4,3,"win","Win","win","no_press",1,"no_press","no_press",0
"544",2180,"GAEL0180",14,16,15,14,13,2138,777,0,1,"a.sham",2,"no_press",0,"NGW","noGo",1,260,4,4,"win","Win","win","no_press",1,"no_press","no_press",0
"545",2181,"GAEL0180",14,16,15,14,13,2485,589,0,1,"a.sham",2,"no_press",0,"NGW","noGo",1,261,4,5,"win","Win","win","no_press",1,"no_press","no_press",0
"546",2184,"GAEL0180",14,16,15,14,13,1300,987,0,1,"a.sham",2,"no_press",0,"NGW","noGo",1,264,4,6,"win","Win","win","no_press",1,"no_press","no_press",0
"547",2185,"GAEL0180",14,16,15,14,13,1582,566,0,1,"a.sham",2,"no_press",0,"NGW","noGo",1,265,4,7,"win","Win","win","no_press",1,"no_press","no_press",0
"548",2186,"GAEL0180",14,16,15,14,13,2958,528,0,1,"a.sham",2,"no_press",0,"NGW","noGo",1,266,4,8,"win","Win","win","no_press",1,"no_press","no_press",0
"549",2188,"GAEL0180",14,16,15,14,13,2520,728,0,1,"a.sham",2,"no_press",0,"NGW","noGo",1,268,4,9,"win","Win","win","no_press",1,"no_press","no_press",0
"550",2196,"GAEL0180",14,16,15,14,13,2547,668,0,1,"a.sham",2,"no_press",0,"NGW","noGo",1,276,4,10,"win","Win","win","no_press",1,"no_press","no_press",0
"551",2198,"GAEL0180",14,16,15,14,13,2173,527,0,1,"a.sham",2,"no_press",0,"NGW","noGo",1,278,4,11,"win","Win","win","no_press",1,"no_press","no_press",0
"552",2199,"GAEL0180",14,16,15,14,13,1212,927,0,1,"a.sham",2,"no_press",0,"NGW","noGo",1,279,4,12,"win","Win","win","no_press",1,"no_press","no_press",0
"553",2201,"GAEL0180",14,16,15,14,13,2566,800,0,1,"a.sham",2,"no_press",0,"NGW","noGo",1,281,4,13,"win","Win","win","no_press",1,"no_press","no_press",0
"554",2206,"GAEL0180",14,16,15,14,13,2100,892,0,1,"a.sham",2,"no_press",0,"NGW","noGo",1,286,4,14,"win","Win","win","no_press",1,"no_press","no_press",0
"555",2211,"GAEL0180",14,16,15,14,13,2767,944,0,0,"a.sham",2,"no_press",0,"NGW","noGo",1,291,4,15,"neutral","Win",NA,"no_press",0,NA,"no_press",0
"556",2218,"GAEL0180",14,16,15,14,13,1000,526,0,1,"a.sham",2,"no_press",0,"NGW","noGo",1,298,4,16,"win","Win","win","no_press",1,"no_press","no_press",0
"557",2227,"GAEL0180",14,16,15,14,13,1666,797,0,0,"a.sham",2,"no_press",0,"NGW","noGo",1,307,4,17,"neutral","Win",NA,"no_press",0,NA,"no_press",0
"558",2229,"GAEL0180",14,16,15,14,13,1637,854,0,0,"a.sham",2,"no_press",0,"NGW","noGo",1,309,4,18,"neutral","Win",NA,"no_press",0,NA,"no_press",0
"559",2235,"GAEL0180",14,16,15,14,13,3659,752,0,0,"a.sham",2,"no_press",0,"NGW","noGo",1,315,4,19,"neutral","Win",NA,"no_press",0,NA,"no_press",0
"560",2237,"GAEL0180",14,16,15,14,13,2689,965,0,1,"a.sham",2,"no_press",0,"NGW","noGo",1,317,4,20,"win","Win","win",NA,1,NA,NA,NA
"561",2241,"JAKA0154",2,4,3,2,1,2251,782,894,0,"a.sham",2,"press",1,"NGW","noGo",0,1,1,1,"neutral","Win",NA,"press",1,"press","press",1
"562",2246,"JAKA0154",2,4,3,2,1,1573,910,1454,0,"a.sham",2,"press",1,"NGW","noGo",0,6,1,2,"neutral","Win",NA,"no_press",1,"no_press","no_press",0
"563",2250,"JAKA0154",2,4,3,2,1,2065,935,0,1,"a.sham",2,"no_press",0,"NGW","noGo",1,10,1,3,"win","Win","win","press",1,"press","press",1
"564",2256,"JAKA0154",2,4,3,2,1,1212,735,637,1,"a.sham",2,"press",1,"NGW","noGo",0,16,1,4,"win","Win","win","no_press",0,NA,"no_press",0
"565",2257,"JAKA0154",2,4,3,2,1,1286,960,0,1,"a.sham",2,"no_press",0,"NGW","noGo",1,17,1,5,"win","Win","win","no_press",1,"no_press","no_press",0
"566",2258,"JAKA0154",2,4,3,2,1,2374,521,0,1,"a.sham",2,"no_press",0,"NGW","noGo",1,18,1,6,"win","Win","win","press",1,"press","press",1
"567",2263,"JAKA0154",2,4,3,2,1,2121,706,977,0,"a.sham",2,"press",1,"NGW","noGo",0,23,1,7,"neutral","Win",NA,"press",1,"press","press",1
"568",2264,"JAKA0154",2,4,3,2,1,2040,961,580,0,"a.sham",2,"press",1,"NGW","noGo",0,24,1,8,"neutral","Win",NA,"press",1,"press","press",1
"569",2273,"JAKA0154",2,4,3,2,1,2822,752,692,0,"a.sham",2,"press",1,"NGW","noGo",0,33,1,9,"neutral","Win",NA,"press",1,"press","press",1
"570",2276,"JAKA0154",2,4,3,2,1,1539,816,1014,1,"a.sham",2,"press",1,"NGW","noGo",0,36,1,10,"win","Win","win","press",0,NA,"press",1
"571",2278,"JAKA0154",2,4,3,2,1,1782,905,1243,0,"a.sham",2,"press",1,"NGW","noGo",0,38,1,11,"neutral","Win",NA,"press",1,"press","press",1
"572",2280,"JAKA0154",2,4,3,2,1,2527,615,658,0,"a.sham",2,"press",1,"NGW","noGo",0,40,1,12,"neutral","Win",NA,"no_press",1,"no_press","no_press",0
"573",2284,"JAKA0154",2,4,3,2,1,1871,573,0,1,"a.sham",2,"no_press",0,"NGW","noGo",1,44,1,13,"win","Win","win","no_press",1,"no_press","no_press",0
"574",2295,"JAKA0154",2,4,3,2,1,1720,721,0,1,"a.sham",2,"no_press",0,"NGW","noGo",1,55,1,14,"win","Win","win","no_press",1,"no_press","no_press",0
"575",2296,"JAKA0154",2,4,3,2,1,2009,805,0,1,"a.sham",2,"no_press",0,"NGW","noGo",1,56,1,15,"win","Win","win","no_press",1,"no_press","no_press",0
"576",2299,"JAKA0154",2,4,3,2,1,1330,510,0,0,"a.sham",2,"no_press",0,"NGW","noGo",1,59,1,16,"neutral","Win",NA,"no_press",0,NA,"no_press",0
"577",2300,"JAKA0154",2,4,3,2,1,2587,657,0,1,"a.sham",2,"no_press",0,"NGW","noGo",1,60,1,17,"win","Win","win","no_press",1,"no_press","no_press",0
"578",2302,"JAKA0154",2,4,3,2,1,1469,615,0,1,"a.sham",2,"no_press",0,"NGW","noGo",1,62,1,18,"win","Win","win","no_press",1,"no_press","no_press",0
"579",2304,"JAKA0154",2,4,3,2,1,2355,967,0,0,"a.sham",2,"no_press",0,"NGW","noGo",1,64,1,19,"neutral","Win",NA,"no_press",0,NA,"no_press",0
"580",2318,"JAKA0154",2,4,3,2,1,1770,920,0,1,"a.sham",2,"no_press",0,"NGW","noGo",1,78,1,20,"win","Win","win","no_press",1,"no_press",NA,NA
"581",2327,"JAKA0154",6,8,5,6,7,1480,836,0,1,"a.sham",2,"no_press",0,"NGW","noGo",1,87,2,1,"win","Win","win","no_press",1,"no_press","no_press",0
"582",2332,"JAKA0154",6,8,5,6,7,1510,573,0,1,"a.sham",2,"no_press",0,"NGW","noGo",1,92,2,2,"win","Win","win","press",1,"press","press",1
"583",2336,"JAKA0154",6,8,5,6,7,1967,608,996,0,"a.sham",2,"press",1,"NGW","noGo",0,96,2,3,"neutral","Win",NA,"press",1,"press","press",1
"584",2339,"JAKA0154",6,8,5,6,7,1792,500,1275,0,"a.sham",2,"press",1,"NGW","noGo",0,99,2,4,"neutral","Win",NA,"no_press",1,"no_press","no_press",0
"585",2341,"JAKA0154",6,8,5,6,7,1841,800,0,1,"a.sham",2,"no_press",0,"NGW","noGo",1,101,2,5,"win","Win","win","no_press",1,"no_press","no_press",0
"586",2343,"JAKA0154",6,8,5,6,7,2767,689,0,1,"a.sham",2,"no_press",0,"NGW","noGo",1,103,2,6,"win","Win","win","press",1,"press","press",1
"587",2344,"JAKA0154",6,8,5,6,7,2936,611,670,0,"a.sham",2,"press",1,"NGW","noGo",0,104,2,7,"neutral","Win",NA,"press",1,"press","press",1
"588",2352,"JAKA0154",6,8,5,6,7,1503,523,1246,1,"a.sham",2,"press",1,"NGW","noGo",0,112,2,8,"win","Win","win","press",0,NA,"press",1
"589",2354,"JAKA0154",6,8,5,6,7,2566,814,808,0,"a.sham",2,"press",1,"NGW","noGo",0,114,2,9,"neutral","Win",NA,"no_press",1,"no_press","no_press",0
"590",2355,"JAKA0154",6,8,5,6,7,2484,935,0,1,"a.sham",2,"no_press",0,"NGW","noGo",1,115,2,10,"win","Win","win","no_press",1,"no_press","no_press",0
"591",2356,"JAKA0154",6,8,5,6,7,1368,977,0,1,"a.sham",2,"no_press",0,"NGW","noGo",1,116,2,11,"win","Win","win","no_press",1,"no_press","no_press",0
"592",2357,"JAKA0154",6,8,5,6,7,3024,730,0,0,"a.sham",2,"no_press",0,"NGW","noGo",1,117,2,12,"neutral","Win",NA,"no_press",0,NA,"no_press",0
"593",2360,"JAKA0154",6,8,5,6,7,3367,874,0,1,"a.sham",2,"no_press",0,"NGW","noGo",1,120,2,13,"win","Win","win","press",1,"press","press",1
"594",2368,"JAKA0154",6,8,5,6,7,1575,963,574,0,"a.sham",2,"press",1,"NGW","noGo",0,128,2,14,"neutral","Win",NA,"press",1,"press","press",1
"595",2370,"JAKA0154",6,8,5,6,7,2255,512,1401,0,"a.sham",2,"press",1,"NGW","noGo",0,130,2,15,"neutral","Win",NA,"no_press",1,"no_press","no_press",0
"596",2385,"JAKA0154",6,8,5,6,7,2185,770,0,0,"a.sham",2,"no_press",0,"NGW","noGo",1,145,2,16,"neutral","Win",NA,"no_press",0,NA,"no_press",0
"597",2389,"JAKA0154",6,8,5,6,7,1820,914,0,1,"a.sham",2,"no_press",0,"NGW","noGo",1,149,2,17,"win","Win","win","no_press",1,"no_press","no_press",0
"598",2393,"JAKA0154",6,8,5,6,7,1815,881,0,1,"a.sham",2,"no_press",0,"NGW","noGo",1,153,2,18,"win","Win","win","no_press",1,"no_press","no_press",0
"599",2398,"JAKA0154",6,8,5,6,7,1919,716,0,1,"a.sham",2,"no_press",0,"NGW","noGo",1,158,2,19,"win","Win","win","no_press",1,"no_press","no_press",0
"600",2399,"JAKA0154",6,8,5,6,7,1997,873,0,0,"a.sham",2,"no_press",0,"NGW","noGo",1,159,2,20,"neutral","Win",NA,"no_press",0,NA,NA,NA
"601",2402,"JAKA0154",12,10,9,12,11,1900,974,0,1,"a.sham",2,"no_press",0,"NGW","noGo",1,162,3,1,"win","Win","win","press",1,"press","press",1
"602",2405,"JAKA0154",12,10,9,12,11,2008,701,1078,0,"a.sham",2,"press",1,"NGW","noGo",0,165,3,2,"neutral","Win",NA,"press",1,"press","press",1
"603",2414,"JAKA0154",12,10,9,12,11,1706,745,731,0,"a.sham",2,"press",1,"NGW","noGo",0,174,3,3,"neutral","Win",NA,"no_press",1,"no_press","no_press",0
"604",2416,"JAKA0154",12,10,9,12,11,1988,595,0,0,"a.sham",2,"no_press",0,"NGW","noGo",1,176,3,4,"neutral","Win",NA,"press",0,NA,"press",1
"605",2420,"JAKA0154",12,10,9,12,11,2289,746,1192,0,"a.sham",2,"press",1,"NGW","noGo",0,180,3,5,"neutral","Win",NA,"no_press",1,"no_press","no_press",0
"606",2428,"JAKA0154",12,10,9,12,11,1576,854,0,1,"a.sham",2,"no_press",0,"NGW","noGo",1,188,3,6,"win","Win","win","no_press",1,"no_press","no_press",0
"607",2429,"JAKA0154",12,10,9,12,11,2076,718,0,1,"a.sham",2,"no_press",0,"NGW","noGo",1,189,3,7,"win","Win","win","no_press",1,"no_press","no_press",0
"608",2430,"JAKA0154",12,10,9,12,11,1595,784,0,1,"a.sham",2,"no_press",0,"NGW","noGo",1,190,3,8,"win","Win","win","no_press",1,"no_press","no_press",0
"609",2439,"JAKA0154",12,10,9,12,11,2273,943,0,1,"a.sham",2,"no_press",0,"NGW","noGo",1,199,3,9,"win","Win","win","no_press",1,"no_press","no_press",0
"610",2440,"JAKA0154",12,10,9,12,11,1832,905,0,0,"a.sham",2,"no_press",0,"NGW","noGo",1,200,3,10,"neutral","Win",NA,"no_press",0,NA,"no_press",0
"611",2441,"JAKA0154",12,10,9,12,11,1720,893,0,1,"a.sham",2,"no_press",0,"NGW","noGo",1,201,3,11,"win","Win","win","no_press",1,"no_press","no_press",0
"612",2442,"JAKA0154",12,10,9,12,11,1841,723,0,0,"a.sham",2,"no_press",0,"NGW","noGo",1,202,3,12,"neutral","Win",NA,"no_press",0,NA,"no_press",0
"613",2444,"JAKA0154",12,10,9,12,11,2080,606,0,1,"a.sham",2,"no_press",0,"NGW","noGo",1,204,3,13,"win","Win","win","no_press",1,"no_press","no_press",0
"614",2446,"JAKA0154",12,10,9,12,11,1000,824,0,1,"a.sham",2,"no_press",0,"NGW","noGo",1,206,3,14,"win","Win","win","no_press",1,"no_press","no_press",0
"615",2449,"JAKA0154",12,10,9,12,11,1775,827,0,1,"a.sham",2,"no_press",0,"NGW","noGo",1,209,3,15,"win","Win","win","no_press",1,"no_press","no_press",0
"616",2464,"JAKA0154",12,10,9,12,11,1655,806,0,1,"a.sham",2,"no_press",0,"NGW","noGo",1,224,3,16,"win","Win","win","no_press",1,"no_press","no_press",0
"617",2465,"JAKA0154",12,10,9,12,11,2231,972,0,1,"a.sham",2,"no_press",0,"NGW","noGo",1,225,3,17,"win","Win","win","no_press",1,"no_press","no_press",0
"618",2467,"JAKA0154",12,10,9,12,11,2275,541,0,0,"a.sham",2,"no_press",0,"NGW","noGo",1,227,3,18,"neutral","Win",NA,"no_press",0,NA,"no_press",0
"619",2468,"JAKA0154",12,10,9,12,11,1834,916,0,1,"a.sham",2,"no_press",0,"NGW","noGo",1,228,3,19,"win","Win","win","no_press",1,"no_press","no_press",0
"620",2474,"JAKA0154",12,10,9,12,11,2668,966,0,1,"a.sham",2,"no_press",0,"NGW","noGo",1,234,3,20,"win","Win","win","no_press",1,"no_press",NA,NA
"621",2482,"JAKA0154",16,14,13,16,15,2689,515,0,1,"a.sham",2,"no_press",0,"NGW","noGo",1,242,4,1,"win","Win","win","no_press",1,"no_press","no_press",0
"622",2483,"JAKA0154",16,14,13,16,15,1857,933,0,0,"a.sham",2,"no_press",0,"NGW","noGo",1,243,4,2,"neutral","Win",NA,"no_press",0,NA,"no_press",0
"623",2484,"JAKA0154",16,14,13,16,15,1497,914,0,1,"a.sham",2,"no_press",0,"NGW","noGo",1,244,4,3,"win","Win","win","no_press",1,"no_press","no_press",0
"624",2486,"JAKA0154",16,14,13,16,15,1851,768,0,1,"a.sham",2,"no_press",0,"NGW","noGo",1,246,4,4,"win","Win","win","no_press",1,"no_press","no_press",0
"625",2489,"JAKA0154",16,14,13,16,15,2547,924,0,1,"a.sham",2,"no_press",0,"NGW","noGo",1,249,4,5,"win","Win","win","no_press",1,"no_press","no_press",0
"626",2505,"JAKA0154",16,14,13,16,15,1757,647,0,1,"a.sham",2,"no_press",0,"NGW","noGo",1,265,4,6,"win","Win","win","no_press",1,"no_press","no_press",0
"627",2517,"JAKA0154",16,14,13,16,15,1984,936,0,1,"a.sham",2,"no_press",0,"NGW","noGo",1,277,4,7,"win","Win","win","no_press",1,"no_press","no_press",0
"628",2520,"JAKA0154",16,14,13,16,15,2246,786,0,1,"a.sham",2,"no_press",0,"NGW","noGo",1,280,4,8,"win","Win","win","no_press",1,"no_press","no_press",0
"629",2528,"JAKA0154",16,14,13,16,15,1668,771,0,1,"a.sham",2,"no_press",0,"NGW","noGo",1,288,4,9,"win","Win","win","no_press",1,"no_press","no_press",0
"630",2536,"JAKA0154",16,14,13,16,15,2086,604,0,1,"a.sham",2,"no_press",0,"NGW","noGo",1,296,4,10,"win","Win","win","no_press",1,"no_press","no_press",0
"631",2541,"JAKA0154",16,14,13,16,15,1975,863,0,1,"a.sham",2,"no_press",0,"NGW","noGo",1,301,4,11,"win","Win","win","no_press",1,"no_press","no_press",0
"632",2542,"JAKA0154",16,14,13,16,15,1318,528,0,1,"a.sham",2,"no_press",0,"NGW","noGo",1,302,4,12,"win","Win","win","no_press",1,"no_press","no_press",0
"633",2543,"JAKA0154",16,14,13,16,15,1880,667,0,1,"a.sham",2,"no_press",0,"NGW","noGo",1,303,4,13,"win","Win","win","no_press",1,"no_press","no_press",0
"634",2545,"JAKA0154",16,14,13,16,15,2256,526,0,0,"a.sham",2,"no_press",0,"NGW","noGo",1,305,4,14,"neutral","Win",NA,"no_press",0,NA,"no_press",0
"635",2546,"JAKA0154",16,14,13,16,15,2550,726,0,1,"a.sham",2,"no_press",0,"NGW","noGo",1,306,4,15,"win","Win","win","no_press",1,"no_press","no_press",0
"636",2547,"JAKA0154",16,14,13,16,15,2087,815,0,0,"a.sham",2,"no_press",0,"NGW","noGo",1,307,4,16,"neutral","Win",NA,"no_press",0,NA,"no_press",0
"637",2549,"JAKA0154",16,14,13,16,15,1803,914,0,1,"a.sham",2,"no_press",0,"NGW","noGo",1,309,4,17,"win","Win","win","no_press",1,"no_press","no_press",0
"638",2550,"JAKA0154",16,14,13,16,15,1000,535,0,0,"a.sham",2,"no_press",0,"NGW","noGo",1,310,4,18,"neutral","Win",NA,"no_press",0,NA,"no_press",0
"639",2556,"JAKA0154",16,14,13,16,15,2127,623,0,1,"a.sham",2,"no_press",0,"NGW","noGo",1,316,4,19,"win","Win","win","no_press",1,"no_press","no_press",0
"640",2557,"JAKA0154",16,14,13,16,15,1978,524,0,1,"a.sham",2,"no_press",0,"NGW","noGo",1,317,4,20,"win","Win","win",NA,1,NA,NA,NA
"641",2565,"JYDF0098",2,4,3,2,1,1736,727,638,1,"a.sham",2,"press",1,"NGW","noGo",0,5,1,1,"win","Win","win","press",0,NA,"press",1
"642",2566,"JYDF0098",2,4,3,2,1,2276,828,583,0,"a.sham",2,"press",1,"NGW","noGo",0,6,1,2,"neutral","Win",NA,"press",1,"press","press",1
"643",2568,"JYDF0098",2,4,3,2,1,1480,514,430,0,"a.sham",2,"press",1,"NGW","noGo",0,8,1,3,"neutral","Win",NA,"press",1,"press","press",1
"644",2578,"JYDF0098",2,4,3,2,1,2260,685,695,0,"a.sham",2,"press",1,"NGW","noGo",0,18,1,4,"neutral","Win",NA,"no_press",1,"no_press","no_press",0
"645",2579,"JYDF0098",2,4,3,2,1,2763,523,0,1,"a.sham",2,"no_press",0,"NGW","noGo",1,19,1,5,"win","Win","win","no_press",1,"no_press","no_press",0
"646",2587,"JYDF0098",2,4,3,2,1,1286,878,0,1,"a.sham",2,"no_press",0,"NGW","noGo",1,27,1,6,"win","Win","win","no_press",1,"no_press","no_press",0
"647",2602,"JYDF0098",2,4,3,2,1,1478,813,0,1,"a.sham",2,"no_press",0,"NGW","noGo",1,42,1,7,"win","Win","win","no_press",1,"no_press","no_press",0
"648",2605,"JYDF0098",2,4,3,2,1,1755,886,0,1,"a.sham",2,"no_press",0,"NGW","noGo",1,45,1,8,"win","Win","win","no_press",1,"no_press","no_press",0
"649",2608,"JYDF0098",2,4,3,2,1,2053,531,0,1,"a.sham",2,"no_press",0,"NGW","noGo",1,48,1,9,"win","Win","win","no_press",1,"no_press","no_press",0
"650",2612,"JYDF0098",2,4,3,2,1,1844,938,0,1,"a.sham",2,"no_press",0,"NGW","noGo",1,52,1,10,"win","Win","win","no_press",1,"no_press","no_press",0
"651",2613,"JYDF0098",2,4,3,2,1,1838,697,0,1,"a.sham",2,"no_press",0,"NGW","noGo",1,53,1,11,"win","Win","win","no_press",1,"no_press","no_press",0
"652",2615,"JYDF0098",2,4,3,2,1,1500,848,0,1,"a.sham",2,"no_press",0,"NGW","noGo",1,55,1,12,"win","Win","win","no_press",1,"no_press","no_press",0
"653",2617,"JYDF0098",2,4,3,2,1,2298,882,0,1,"a.sham",2,"no_press",0,"NGW","noGo",1,57,1,13,"win","Win","win","no_press",1,"no_press","no_press",0
"654",2618,"JYDF0098",2,4,3,2,1,1470,666,0,0,"a.sham",2,"no_press",0,"NGW","noGo",1,58,1,14,"neutral","Win",NA,"no_press",0,NA,"no_press",0
"655",2619,"JYDF0098",2,4,3,2,1,1000,686,0,1,"a.sham",2,"no_press",0,"NGW","noGo",1,59,1,15,"win","Win","win","no_press",1,"no_press","no_press",0
"656",2621,"JYDF0098",2,4,3,2,1,2907,928,0,0,"a.sham",2,"no_press",0,"NGW","noGo",1,61,1,16,"neutral","Win",NA,"no_press",0,NA,"no_press",0
"657",2628,"JYDF0098",2,4,3,2,1,2640,673,0,0,"a.sham",2,"no_press",0,"NGW","noGo",1,68,1,17,"neutral","Win",NA,"no_press",0,NA,"no_press",0
"658",2629,"JYDF0098",2,4,3,2,1,1576,551,0,1,"a.sham",2,"no_press",0,"NGW","noGo",1,69,1,18,"win","Win","win","no_press",1,"no_press","no_press",0
"659",2635,"JYDF0098",2,4,3,2,1,1871,520,0,1,"a.sham",2,"no_press",0,"NGW","noGo",1,75,1,19,"win","Win","win","no_press",1,"no_press","no_press",0
"660",2640,"JYDF0098",2,4,3,2,1,2353,503,0,1,"a.sham",2,"no_press",0,"NGW","noGo",1,80,1,20,"win","Win","win","press",1,"press",NA,NA
"661",2641,"JYDF0098",8,6,7,8,5,2209,831,833,0,"a.sham",2,"press",1,"NGW","noGo",0,81,2,1,"neutral","Win",NA,"press",1,"press","press",1
"662",2649,"JYDF0098",8,6,7,8,5,2767,705,984,0,"a.sham",2,"press",1,"NGW","noGo",0,89,2,2,"neutral","Win",NA,"no_press",1,"no_press","no_press",0
"663",2657,"JYDF0098",8,6,7,8,5,2511,585,0,1,"a.sham",2,"no_press",0,"NGW","noGo",1,97,2,3,"win","Win","win","no_press",1,"no_press","no_press",0
"664",2662,"JYDF0098",8,6,7,8,5,2009,613,0,1,"a.sham",2,"no_press",0,"NGW","noGo",1,102,2,4,"win","Win","win","no_press",1,"no_press","no_press",0
"665",2663,"JYDF0098",8,6,7,8,5,2958,934,0,1,"a.sham",2,"no_press",0,"NGW","noGo",1,103,2,5,"win","Win","win","no_press",1,"no_press","no_press",0
"666",2664,"JYDF0098",8,6,7,8,5,1833,678,0,1,"a.sham",2,"no_press",0,"NGW","noGo",1,104,2,6,"win","Win","win","no_press",1,"no_press","no_press",0
"667",2665,"JYDF0098",8,6,7,8,5,2253,848,0,1,"a.sham",2,"no_press",0,"NGW","noGo",1,105,2,7,"win","Win","win","no_press",1,"no_press","no_press",0
"668",2670,"JYDF0098",8,6,7,8,5,1595,734,0,1,"a.sham",2,"no_press",0,"NGW","noGo",1,110,2,8,"win","Win","win","no_press",1,"no_press","no_press",0
"669",2672,"JYDF0098",8,6,7,8,5,2550,789,0,1,"a.sham",2,"no_press",0,"NGW","noGo",1,112,2,9,"win","Win","win","no_press",1,"no_press","no_press",0
"670",2684,"JYDF0098",8,6,7,8,5,2071,719,0,0,"a.sham",2,"no_press",0,"NGW","noGo",1,124,2,10,"neutral","Win",NA,"no_press",0,NA,"no_press",0
"671",2688,"JYDF0098",8,6,7,8,5,2089,691,0,1,"a.sham",2,"no_press",0,"NGW","noGo",1,128,2,11,"win","Win","win","no_press",1,"no_press","no_press",0
"672",2691,"JYDF0098",8,6,7,8,5,1585,902,0,1,"a.sham",2,"no_press",0,"NGW","noGo",1,131,2,12,"win","Win","win","no_press",1,"no_press","no_press",0
"673",2696,"JYDF0098",8,6,7,8,5,2800,863,0,1,"a.sham",2,"no_press",0,"NGW","noGo",1,136,2,13,"win","Win","win","no_press",1,"no_press","no_press",0
"674",2699,"JYDF0098",8,6,7,8,5,1573,671,0,0,"a.sham",2,"no_press",0,"NGW","noGo",1,139,2,14,"neutral","Win",NA,"no_press",0,NA,"no_press",0
"675",2703,"JYDF0098",8,6,7,8,5,2031,790,0,0,"a.sham",2,"no_press",0,"NGW","noGo",1,143,2,15,"neutral","Win",NA,"no_press",0,NA,"no_press",0
"676",2707,"JYDF0098",8,6,7,8,5,1565,859,0,1,"a.sham",2,"no_press",0,"NGW","noGo",1,147,2,16,"win","Win","win","no_press",1,"no_press","no_press",0
"677",2713,"JYDF0098",8,6,7,8,5,2256,932,0,0,"a.sham",2,"no_press",0,"NGW","noGo",1,153,2,17,"neutral","Win",NA,"no_press",0,NA,"no_press",0
"678",2714,"JYDF0098",8,6,7,8,5,2763,604,0,1,"a.sham",2,"no_press",0,"NGW","noGo",1,154,2,18,"win","Win","win","no_press",1,"no_press","no_press",0
"679",2718,"JYDF0098",8,6,7,8,5,2422,932,0,1,"a.sham",2,"no_press",0,"NGW","noGo",1,158,2,19,"win","Win","win","no_press",1,"no_press","no_press",0
"680",2720,"JYDF0098",8,6,7,8,5,1485,542,0,1,"a.sham",2,"no_press",0,"NGW","noGo",1,160,2,20,"win","Win","win","press",1,"press",NA,NA
"681",2725,"JYDF0098",10,12,9,10,11,1379,736,559,0,"a.sham",2,"press",1,"NGW","noGo",0,165,3,1,"neutral","Win",NA,"press",1,"press","press",1
